trial_type,trial_index,trial_index_global,time_elapsed,key_press,stim_s1_left,stim_s1_right,stim_s1_left_img,stim_s1_right_img,rt_1,choice1,stim_s2_left,stim_s2_right,state2_color,stim_s2_left_img,stim_s2_right_img,rt_2,choice2,win,state2_id,common,score,practice,reward_prob1,reward_prob2,reward_prob3,reward_prob4,block,trial_in_total,participant_id,last_rewarded,stay,key_press2
daw_two_step,0,18,126961,70,2,1,stage1_stim_2.png,stage1_stim_1.png,1199,2,1,2,pink,pink_stim_1.png,pink_stim_2.png,983,1,true,1,0,1,0,0.6,0.4,0.75,0.25,1,0,514,NA,NA,f
daw_two_step,1,19,131512,70,2,1,stage1_stim_2.png,stage1_stim_1.png,720,2,1,2,blue,blue_stim_1.png,blue_stim_2.png,1226,1,true,2,1,2,0,0.5793321124797596,0.38996592349786785,0.7474477608105203,0.256303014557766,1,1,514,true,TRUE,f
daw_two_step,2,20,136513,70,1,2,stage1_stim_1.png,stage1_stim_2.png,1055,2,1,2,blue,blue_stim_1.png,blue_stim_2.png,695,1,false,2,1,2,0,0.6058250365333567,0.3774954038700205,0.7349772411826729,0.2583776061152882,1,2,514,true,TRUE,f
daw_two_step,3,21,140713,74,2,1,stage1_stim_2.png,stage1_stim_1.png,777,2,2,1,blue,blue_stim_2.png,blue_stim_1.png,849,1,false,2,1,2,0,0.6016917830405124,0.3793694422992138,0.7154197704181435,0.2977322449598617,1,3,514,false,TRUE,j
daw_two_step,4,22,145304,70,2,1,stage1_stim_2.png,stage1_stim_1.png,599,2,1,2,blue,blue_stim_1.png,blue_stim_2.png,562,1,true,2,1,3,0,0.6317698188214156,0.4165247983389598,0.7415326668692905,0.3178110871353827,1,4,514,false,TRUE,f
daw_two_step,5,23,149497,70,2,1,stage1_stim_2.png,stage1_stim_1.png,728,2,1,2,blue,blue_stim_1.png,blue_stim_2.png,645,1,true,2,1,4,0,0.6587015795666491,0.4305249233364928,0.7249252729994646,0.3229025015019259,1,5,514,true,TRUE,f
daw_two_step,6,24,153672,70,1,2,stage1_stim_1.png,stage1_stim_2.png,778,2,2,1,blue,blue_stim_2.png,blue_stim_1.png,562,2,false,2,1,4,0,0.667870032528257,0.4265055692065004,0.7475332093168277,0.31143006385637073,1,6,514,true,TRUE,f
daw_two_step,7,25,158329,74,2,1,stage1_stim_2.png,stage1_stim_1.png,567,2,2,1,blue,blue_stim_2.png,blue_stim_1.png,779,1,true,2,1,5,0,0.6865933273972888,0.4556720064927203,0.7383124772499863,0.3232274769160846,1,7,514,false,TRUE,j
daw_two_step,8,26,163457,70,1,2,stage1_stim_1.png,stage1_stim_2.png,1148,2,1,2,blue,blue_stim_1.png,blue_stim_2.png,472,1,false,2,1,5,0,0.6403352646241434,0.4204681506086011,0.7485794004274946,0.28237875119777534,1,8,514,true,TRUE,f
daw_two_step,9,27,167568,70,2,1,stage1_stim_2.png,stage1_stim_1.png,407,2,2,1,pink,pink_stim_2.png,pink_stim_1.png,550,2,false,1,0,5,0,0.599045899914154,0.4176650726202916,0.7336979012682288,0.3044299075415912,1,9,514,false,TRUE,f
daw_two_step,10,28,171608,70,2,1,stage1_stim_2.png,stage1_stim_1.png,542,2,1,2,blue,blue_stim_1.png,blue_stim_2.png,939,1,true,2,1,6,0,0.6171742700265193,0.42423569419954743,0.7154479690550591,0.3020551336149514,1,10,514,false,TRUE,f
daw_two_step,11,29,175600,70,1,2,stage1_stim_1.png,stage1_stim_2.png,330,1,2,1,blue,blue_stim_2.png,blue_stim_1.png,626,2,false,2,0,6,0,0.6146220308370396,0.404999516072748,0.7013568368484466,0.3198634034074209,1,11,514,true,FALSE,f
daw_two_step,12,30,179616,70,2,1,stage1_stim_2.png,stage1_stim_1.png,309,2,2,1,pink,pink_stim_2.png,pink_stim_1.png,455,2,true,1,0,7,0,0.6562256954053624,0.4238815913088745,0.7180430160309409,0.28566220552107435,1,12,514,false,FALSE,f
daw_two_step,13,31,183416,70,1,2,stage1_stim_1.png,stage1_stim_2.png,734,1,2,1,blue,blue_stim_2.png,blue_stim_1.png,342,2,true,2,0,8,0,0.6454343637962184,0.4239879155171719,0.7257692094674539,0.2785637191801719,1,13,514,true,FALSE,f
daw_two_step,14,32,186457,70,2,1,stage1_stim_2.png,stage1_stim_1.png,59,2,1,2,blue,blue_stim_1.png,blue_stim_2.png,425,1,true,2,1,9,0,0.6379481991703865,0.4252643509363402,0.7349108740152254,0.2873990656657397,1,14,514,true,FALSE,f
daw_two_step,15,33,190240,70,1,2,stage1_stim_1.png,stage1_stim_2.png,295,1,1,2,pink,pink_stim_1.png,pink_stim_2.png,357,1,false,1,1,9,0,0.6266131326146872,0.4315673654941061,0.7028076784709313,0.2884085060321137,1,15,514,true,FALSE,f
daw_two_step,16,34,194881,70,1,2,stage1_stim_1.png,stage1_stim_2.png,646,2,1,2,blue,blue_stim_1.png,blue_stim_2.png,575,1,false,2,1,9,0,0.585728658533075,0.4614702862792002,0.6928320739645728,0.2928732401255874,1,16,514,false,FALSE,f
daw_two_step,17,35,199536,74,1,2,stage1_stim_1.png,stage1_stim_2.png,781,2,1,2,pink,pink_stim_1.png,pink_stim_2.png,634,2,false,1,0,9,0,0.608874743384828,0.4194053099708568,0.695178229606851,0.27849902951410327,1,17,514,false,TRUE,j
daw_two_step,18,36,203664,70,2,1,stage1_stim_2.png,stage1_stim_1.png,553,2,2,1,blue,blue_stim_2.png,blue_stim_1.png,228,2,false,2,1,9,0,0.621415947088885,0.4215425571308267,0.6571780941095076,0.29183086929289254,1,18,514,false,TRUE,f
daw_two_step,19,37,207792,70,1,2,stage1_stim_1.png,stage1_stim_2.png,616,2,2,1,blue,blue_stim_2.png,blue_stim_1.png,369,2,false,2,1,9,0,0.6006496092063813,0.44605851612671993,0.7067810825086911,0.27524672393975175,1,19,514,false,TRUE,f
daw_two_step,20,38,211288,74,2,1,stage1_stim_2.png,stage1_stim_1.png,419,2,2,1,blue,blue_stim_2.png,blue_stim_1.png,429,1,true,2,1,10,0,0.6031611344927406,0.4514788217845318,0.6593307598074417,0.2850944194957699,1,20,514,false,TRUE,j
daw_two_step,21,39,215296,74,2,1,stage1_stim_2.png,stage1_stim_1.png,370,2,1,2,blue,blue_stim_1.png,blue_stim_2.png,454,2,true,2,1,11,0,0.564562930577384,0.500987868500591,0.6487611755619513,0.26891347030102347,1,21,514,true,TRUE,j
daw_two_step,22,40,219385,74,1,2,stage1_stim_1.png,stage1_stim_2.png,479,1,2,1,pink,pink_stim_2.png,pink_stim_1.png,426,1,true,1,1,12,0,0.5554022753781299,0.4734648176315035,0.6775528817476951,0.2545489196242516,1,22,514,true,FALSE,j
daw_two_step,23,41,223744,70,1,2,stage1_stim_1.png,stage1_stim_2.png,714,2,1,2,pink,pink_stim_1.png,pink_stim_2.png,545,1,true,1,0,13,0,0.5823078151323365,0.4516374567315914,0.6690218723840012,0.25424972809969226,1,23,514,true,FALSE,f
daw_two_step,24,42,228288,70,2,1,stage1_stim_2.png,stage1_stim_1.png,958,2,1,2,blue,blue_stim_1.png,blue_stim_2.png,812,1,false,2,1,13,0,0.5408247181076172,0.4700050359025881,0.7220431647861194,0.2667893043652245,1,24,514,true,TRUE,f
daw_two_step,25,43,232401,70,1,2,stage1_stim_1.png,stage1_stim_2.png,482,2,1,2,blue,blue_stim_1.png,blue_stim_2.png,297,1,true,2,1,14,0,0.5470683726878943,0.4746347553722518,0.7422959515658849,0.28660844722208645,1,25,514,false,TRUE,f
daw_two_step,26,44,236002,70,1,2,stage1_stim_1.png,stage1_stim_2.png,329,2,2,1,blue,blue_stim_2.png,blue_stim_1.png,358,2,false,2,1,14,0,0.541240961248703,0.48445788080668134,0.7034350264762854,0.2962121628997763,1,26,514,true,TRUE,f
daw_two_step,27,45,239697,74,2,1,stage1_stim_2.png,stage1_stim_1.png,324,2,2,1,blue,blue_stim_2.png,blue_stim_1.png,394,1,true,2,1,15,0,0.5371430779207992,0.4635973182016138,0.6949241449436859,0.3415620134625019,1,27,514,false,TRUE,j
daw_two_step,28,46,244314,70,2,1,stage1_stim_2.png,stage1_stim_1.png,532,2,2,1,pink,pink_stim_2.png,pink_stim_1.png,994,2,false,1,0,15,0,0.5105792481521702,0.44752793314286127,0.6790346883826753,0.3928892191545471,1,28,514,true,TRUE,f
daw_two_step,29,47,248345,74,2,1,stage1_stim_2.png,stage1_stim_1.png,796,1,2,1,pink,pink_stim_2.png,pink_stim_1.png,321,1,true,1,1,16,0,0.5259894115163961,0.4569835783837072,0.66441534506285,0.3346548588004968,1,29,514,false,FALSE,j
daw_two_step,30,48,252562,74,2,1,stage1_stim_2.png,stage1_stim_1.png,525,2,1,2,blue,blue_stim_1.png,blue_stim_2.png,418,2,true,2,1,17,0,0.5258501012573645,0.4258172274664077,0.6636719993332291,0.32620416703292543,1,30,514,true,FALSE,j
daw_two_step,31,49,256634,74,1,2,stage1_stim_1.png,stage1_stim_2.png,621,1,2,1,blue,blue_stim_2.png,blue_stim_1.png,498,1,false,2,0,17,0,0.5596529049690496,0.3746536475129043,0.6630666962060041,0.375088775351754,1,31,514,true,FALSE,j
daw_two_step,32,50,261601,74,1,2,stage1_stim_1.png,stage1_stim_2.png,653,2,1,2,pink,pink_stim_1.png,pink_stim_2.png,1006,2,false,1,0,17,0,0.5556335508390572,0.38447677294733384,0.6722351491676121,0.3332189742808167,1,32,514,false,FALSE,j
daw_two_step,0,52,270025,-1,1,2,stage1_stim_1.png,stage1_stim_2.png,1003,2,2,1,blue,blue_stim_2.png,blue_stim_1.png,-1,NA,NA,2,1,17,0,0.5556335508390572,0.38447677294733384,0.6722351491676121,0.3332189742808167,2,33,514,NA,NA,NA
daw_two_step,1,53,274906,70,2,1,stage1_stim_2.png,stage1_stim_1.png,1276,1,1,2,blue,blue_stim_1.png,blue_stim_2.png,676,1,false,2,0,17,0,0.5650212632575263,0.407475257038085,0.7021380699527062,0.3422477546480487,2,34,514,NA,FALSE,f
daw_two_step,2,54,279393,70,2,1,stage1_stim_2.png,stage1_stim_1.png,720,2,2,1,blue,blue_stim_2.png,blue_stim_1.png,414,2,false,2,1,17,0,0.5080652055366465,0.4109092519220592,0.7165028026113591,0.37103946083379247,2,35,514,false,FALSE,f
daw_two_step,3,55,284002,70,1,2,stage1_stim_1.png,stage1_stim_2.png,1329,2,2,1,pink,pink_stim_2.png,pink_stim_1.png,678,2,false,1,0,17,0,0.4974150844213416,0.4309164157760084,0.7277317297924675,0.3828960634547708,2,36,514,false,TRUE,f
daw_two_step,4,56,288138,70,1,2,stage1_stim_1.png,stage1_stim_2.png,453,1,1,2,pink,pink_stim_1.png,pink_stim_2.png,429,1,false,1,1,17,0,0.5092716870423198,0.4328957693425832,0.7287280879673457,0.39739144402553545,2,37,514,false,FALSE,f
daw_two_step,5,57,292177,74,1,2,stage1_stim_1.png,stage1_stim_2.png,352,2,1,2,blue,blue_stim_1.png,blue_stim_2.png,353,2,false,2,1,17,0,0.5249615323072848,0.39102596827164593,0.7245948344745013,0.41376857417275287,2,38,514,false,FALSE,j
daw_two_step,6,58,296353,74,2,1,stage1_stim_2.png,stage1_stim_1.png,378,2,2,1,blue,blue_stim_2.png,blue_stim_1.png,330,1,true,2,1,18,0,0.5909540867662251,0.3522140487926813,0.7355811706612957,0.4301457043199703,2,39,514,false,TRUE,j
daw_two_step,7,59,300361,70,1,2,stage1_stim_1.png,stage1_stim_2.png,885,2,2,1,blue,blue_stim_2.png,blue_stim_1.png,362,2,false,2,1,18,0,0.612973692975597,0.35307466991408587,0.7250989128213836,0.4455599046244213,2,40,514,true,TRUE,f
daw_two_step,8,60,305273,74,1,2,stage1_stim_1.png,stage1_stim_2.png,1045,1,1,2,pink,pink_stim_1.png,pink_stim_2.png,1018,2,false,1,1,18,0,0.6148477314047903,0.3518989441384689,0.7263753482405518,0.4596835877529352,2,41,514,false,FALSE,j
daw_two_step,9,61,308929,74,2,1,stage1_stim_2.png,stage1_stim_1.png,402,1,1,2,blue,blue_stim_1.png,blue_stim_2.png,584,2,false,2,0,18,0,0.6108283772747979,0.3303181950347018,0.7277029885520012,0.4304059699198915,2,42,514,false,TRUE,j
daw_two_step,10,62,312633,74,1,2,stage1_stim_1.png,stage1_stim_2.png,468,2,1,2,pink,pink_stim_1.png,pink_stim_2.png,245,2,false,1,0,18,0,0.6222810431513478,0.3379598762039917,0.7246753410767227,0.4085786090199794,2,43,514,false,FALSE,j
daw_two_step,11,63,317185,74,2,1,stage1_stim_2.png,stage1_stim_1.png,583,1,2,1,pink,pink_stim_2.png,pink_stim_1.png,531,1,false,1,1,18,0,0.6058537623550495,0.30088182744748565,0.749152439016228,0.39574186201912026,2,44,514,false,FALSE,j
daw_two_step,12,64,321968,74,2,1,stage1_stim_2.png,stage1_stim_1.png,958,1,2,1,blue,blue_stim_2.png,blue_stim_1.png,863,1,true,2,0,19,0,0.5936823106308393,0.3213870594960298,0.7468355755939731,0.3798524054581096,2,45,514,false,TRUE,j
daw_two_step,13,65,326816,70,2,1,stage1_stim_2.png,stage1_stim_1.png,904,2,2,1,pink,pink_stim_2.png,pink_stim_1.png,487,2,false,1,0,19,0,0.6024667285013618,0.32749019622600517,0.7421780882192326,0.4007853225724342,2,46,514,true,FALSE,f
daw_two_step,14,66,330345,70,1,2,stage1_stim_1.png,stage1_stim_2.png,494,2,2,1,blue,blue_stim_2.png,blue_stim_1.png,310,2,false,2,1,19,0,0.5942051682290078,0.32039170988510274,0.7272281891341407,0.4050801572727315,2,47,514,false,TRUE,f
daw_two_step,15,67,333729,74,1,2,stage1_stim_1.png,stage1_stim_2.png,354,1,1,2,pink,pink_stim_1.png,pink_stim_2.png,350,2,false,1,1,19,0,0.5272635273513024,0.294649282749106,0.7458400501206258,0.3671722919285308,2,48,514,false,FALSE,j
daw_two_step,16,68,338009,74,2,1,stage1_stim_2.png,stage1_stim_1.png,451,2,1,2,blue,blue_stim_1.png,blue_stim_2.png,506,2,true,2,1,20,0,0.537086652785732,0.33312961166965566,0.7256507343617387,0.3470561600272486,2,49,514,false,FALSE,j
daw_two_step,17,69,342697,74,2,1,stage1_stim_2.png,stage1_stim_1.png,492,2,1,2,blue,blue_stim_1.png,blue_stim_2.png,847,2,true,2,1,21,0,0.5338319392559747,0.2917424464411175,0.7342610745167936,0.37871069386860223,2,50,514,true,TRUE,j
daw_two_step,18,70,347040,74,2,1,stage1_stim_2.png,stage1_stim_1.png,757,2,1,2,blue,blue_stim_1.png,blue_stim_2.png,775,2,false,2,1,21,0,0.4929832135376654,0.2843321132940753,0.7041966312845398,0.3626413088098497,2,51,514,true,TRUE,j
daw_two_step,19,71,350921,70,1,2,stage1_stim_1.png,stage1_stim_2.png,477,1,1,2,blue,blue_stim_1.png,blue_stim_2.png,349,1,false,2,0,21,0,0.4925584306103705,0.2904352500240507,0.7465744565411561,0.3481052957915003,2,52,514,false,FALSE,f
daw_two_step,20,72,354762,74,1,2,stage1_stim_1.png,stage1_stim_2.png,386,2,2,1,blue,blue_stim_2.png,blue_stim_1.png,518,1,true,2,1,22,0,0.48239582673279346,0.3135813348758038,0.7244106194572089,0.39698990411032886,2,53,514,false,FALSE,j
daw_two_step,21,73,358906,70,2,1,stage1_stim_2.png,stage1_stim_1.png,418,1,1,2,pink,pink_stim_1.png,pink_stim_2.png,686,1,true,1,1,23,0,0.45504075588984144,0.339351055642464,0.7479248162697728,0.35418350011622673,2,54,514,true,FALSE,f
daw_two_step,22,74,363049,70,1,2,stage1_stim_1.png,stage1_stim_2.png,661,1,1,2,pink,pink_stim_1.png,pink_stim_2.png,794,1,false,1,1,23,0,0.46348479218428335,0.3438601537576509,0.7354442788515192,0.34677316696918453,2,55,514,true,TRUE,f
daw_two_step,23,75,366362,70,1,2,stage1_stim_1.png,stage1_stim_2.png,69,1,1,2,pink,pink_stim_1.png,pink_stim_2.png,339,1,true,1,1,24,0,0.4794139268655516,0.3501068437416923,0.7238579918837661,0.3369382470762765,2,56,514,false,TRUE,f
daw_two_step,24,76,369713,70,1,2,stage1_stim_1.png,stage1_stim_2.png,317,1,2,1,pink,pink_stim_2.png,pink_stim_1.png,390,2,false,1,1,24,0,0.4512544951754105,0.4087325238808997,0.7330328808959108,0.35429919500661594,2,57,514,true,TRUE,f
daw_two_step,25,77,375378,70,1,2,stage1_stim_1.png,stage1_stim_2.png,958,1,1,2,blue,blue_stim_1.png,blue_stim_2.png,1642,1,true,2,0,25,0,0.4294271342754984,0.4470581762289093,0.7051727857185998,0.35681072029297517,2,58,514,false,TRUE,f
daw_two_step,26,78,379153,70,1,2,stage1_stim_1.png,stage1_stim_2.png,609,1,2,1,pink,pink_stim_2.png,pink_stim_1.png,415,2,true,1,1,26,0,0.4355113935425685,0.460222821677818,0.7137831258736547,0.33438752744113936,2,59,514,true,TRUE,f
daw_two_step,27,79,382602,70,2,1,stage1_stim_2.png,stage1_stim_1.png,436,2,2,1,pink,pink_stim_2.png,pink_stim_1.png,402,2,true,1,0,27,0,0.39751125804522497,0.45281248853077577,0.7096498723808103,0.34753009183177286,2,60,514,true,FALSE,f
daw_two_step,28,80,386329,70,1,2,stage1_stim_1.png,stage1_stim_2.png,9,1,1,2,pink,pink_stim_1.png,pink_stim_2.png,346,1,false,1,1,27,0,0.3990720882556968,0.4553660701267042,0.6912375279000416,0.3521376779235058,2,61,514,true,FALSE,f
daw_two_step,29,81,390554,74,2,1,stage1_stim_2.png,stage1_stim_1.png,351,1,2,1,pink,pink_stim_2.png,pink_stim_1.png,462,1,true,1,1,28,0,0.413748803349738,0.437282123860868,0.682840921789028,0.3831538870683062,2,62,514,false,TRUE,j
daw_two_step,30,82,395354,74,1,2,stage1_stim_1.png,stage1_stim_2.png,794,2,2,1,blue,blue_stim_2.png,blue_stim_1.png,1342,1,false,2,1,28,0,0.45450602216705216,0.47663676270544153,0.6668722356081358,0.4486076112023099,2,63,514,true,FALSE,j
daw_two_step,31,83,399713,70,2,1,stage1_stim_2.png,stage1_stim_1.png,864,2,2,1,blue,blue_stim_2.png,blue_stim_1.png,248,2,false,2,1,28,0,0.484648648553564,0.484937567144436,0.6828762561520093,0.47484188568407826,2,64,514,false,TRUE,f
daw_two_step,32,84,404346,70,1,2,stage1_stim_1.png,stage1_stim_2.png,1509,2,1,2,pink,pink_stim_1.png,pink_stim_2.png,341,1,false,1,0,28,0,0.5113955691996325,0.48881316638717254,0.6915894026761931,0.49689304202789414,2,65,514,false,TRUE,f
daw_two_step,0,86,412321,70,1,2,stage1_stim_1.png,stage1_stim_2.png,1462,1,2,1,pink,pink_stim_2.png,pink_stim_1.png,349,2,true,1,1,29,0,0.5113955691996325,0.48881316638717254,0.6915894026761931,0.49689304202789414,3,66,514,NA,NA,f
daw_two_step,1,87,416080,70,1,2,stage1_stim_1.png,stage1_stim_2.png,568,1,1,2,pink,pink_stim_1.png,pink_stim_2.png,277,1,false,1,1,29,0,0.538327329944866,0.45174323237182473,0.6960541367696668,0.5200391268796473,3,67,514,true,TRUE,f
daw_two_step,2,88,420256,74,2,1,stage1_stim_2.png,stage1_stim_1.png,582,1,1,2,pink,pink_stim_1.png,pink_stim_2.png,614,2,false,1,1,29,0,0.5406995819286055,0.4179658562410316,0.6352312924416651,0.49965487790255664,3,68,514,false,TRUE,j
daw_two_step,3,89,425777,70,2,1,stage1_stim_2.png,stage1_stim_1.png,1974,1,2,1,pink,pink_stim_2.png,pink_stim_1.png,411,2,false,1,1,29,0,0.5838729408977235,0.4274232644146141,0.6099874877442196,0.4826539989377251,3,69,514,false,TRUE,f
daw_two_step,4,90,430561,70,2,1,stage1_stim_2.png,stage1_stim_1.png,853,2,1,2,pink,pink_stim_1.png,pink_stim_2.png,525,1,false,1,0,29,0,0.6129339845646928,0.43548867921036566,0.6330646523449298,0.49659053325613944,3,70,514,false,FALSE,f
daw_two_step,5,91,434400,74,2,1,stage1_stim_2.png,stage1_stim_1.png,399,1,2,1,pink,pink_stim_2.png,pink_stim_1.png,379,1,true,1,1,30,0,0.6339685822840042,0.4158284952618176,0.6533174391246953,0.552795881011475,3,71,514,false,FALSE,j
daw_two_step,6,92,438064,74,2,1,stage1_stim_2.png,stage1_stim_1.png,409,2,2,1,blue,blue_stim_2.png,blue_stim_1.png,353,1,true,2,1,31,0,0.6736204093274691,0.43050029436927206,0.6168259966400982,0.5934212020761468,3,72,514,true,FALSE,j
daw_two_step,7,93,442497,70,1,2,stage1_stim_1.png,stage1_stim_2.png,1251,2,2,1,pink,pink_stim_2.png,pink_stim_1.png,291,2,false,1,0,31,0,0.6817380881380682,0.3952964384851528,0.5892845285430034,0.5851596418037928,3,73,514,true,TRUE,f
daw_two_step,8,94,445377,74,1,2,stage1_stim_1.png,stage1_stim_2.png,255,1,2,1,pink,pink_stim_2.png,pink_stim_1.png,36,1,true,1,1,32,0,0.7151416343569585,0.4084610839340615,0.5918381101389318,0.6120874198468673,3,74,514,false,FALSE,j
daw_two_step,9,95,449800,70,2,1,stage1_stim_2.png,stage1_stim_1.png,696,1,2,1,pink,pink_stim_2.png,pink_stim_1.png,296,2,false,1,1,32,0,0.7348047043628877,0.4390548065806883,0.5888617683611291,0.5865561838730008,3,75,514,true,TRUE,f
daw_two_step,10,96,453281,74,2,1,stage1_stim_2.png,stage1_stim_1.png,559,2,1,2,blue,blue_stim_1.png,blue_stim_2.png,327,2,false,2,1,32,0,0.7358010625377659,0.42902024214318385,0.5911365242796316,0.5934099979401789,3,76,514,false,FALSE,j
daw_two_step,11,97,456521,74,1,2,stage1_stim_1.png,stage1_stim_2.png,395,1,1,2,pink,pink_stim_1.png,pink_stim_2.png,176,2,true,1,1,33,0,0.6883507398365165,0.41077030993001423,0.6008465016047555,0.5823125680485961,3,77,514,false,FALSE,j
daw_two_step,12,98,460401,74,1,2,stage1_stim_1.png,stage1_stim_2.png,549,1,2,1,blue,blue_stim_2.png,blue_stim_1.png,409,1,true,2,0,34,0,0.666408400213816,0.4125229107961916,0.5894594385922649,0.5508615962148107,3,78,514,true,TRUE,j
daw_two_step,13,99,464281,74,2,1,stage1_stim_2.png,stage1_stim_1.png,765,2,2,1,blue,blue_stim_2.png,blue_stim_1.png,333,1,false,2,1,34,0,0.6629608021099391,0.4431166334428184,0.5399919730485567,0.554591439798404,3,79,514,true,FALSE,j
daw_two_step,14,100,468561,70,1,2,stage1_stim_1.png,stage1_stim_2.png,601,1,2,1,pink,pink_stim_2.png,pink_stim_1.png,124,2,false,1,1,34,0,0.6732969079084771,0.4534968926409011,0.506612413690414,0.5830397576888969,3,80,514,false,FALSE,f
daw_two_step,15,101,472624,70,2,1,stage1_stim_2.png,stage1_stim_1.png,715,2,2,1,pink,pink_stim_2.png,pink_stim_1.png,526,2,true,1,0,35,0,0.70184085408643615,0.5031268929176442,0.5285807159925917,0.5785808553152286,3,81,514,false,FALSE,f
daw_two_step,16,102,477440,70,2,1,stage1_stim_2.png,stage1_stim_1.png,1017,2,2,1,pink,pink_stim_2.png,pink_stim_1.png,475,2,true,1,0,36,0,0.7086378381004617,0.45782735993997814,0.55468192640338565,0.5557029587390849,3,82,514,true,TRUE,f
daw_two_step,17,103,482144,70,1,2,stage1_stim_1.png,stage1_stim_2.png,269,1,2,1,blue,blue_stim_2.png,blue_stim_1.png,1206,2,true,2,0,37,0,0.7200905039770116,0.4169786342216688,0.5612096531738904,0.5723891379215792,3,83,514,true,FALSE,f
daw_two_step,18,104,486648,70,2,1,stage1_stim_2.png,stage1_stim_1.png,146,2,1,2,blue,blue_stim_1.png,blue_stim_2.png,1714,1,false,2,1,37,0,0.7434031054181497,0.36425838659561727,0.572358284372393,0.5968832477060221,3,84,514,true,FALSE,f
daw_two_step,19,105,490849,74,1,2,stage1_stim_1.png,stage1_stim_2.png,163,2,2,1,blue,blue_stim_2.png,blue_stim_1.png,1347,1,true,2,1,38,0,0.7307517936013513,0.3312138034089015,0.58340577104025515,0.5710791139205337,3,85,514,false,TRUE,j
daw_two_step,20,106,495120,70,1,2,stage1_stim_1.png,stage1_stim_2.png,696,2,2,1,blue,blue_stim_2.png,blue_stim_1.png,308,2,true,2,1,39,0,0.7260745995647282,0.3104788163550488,0.5751504045382038,0.5041410690959661,3,86,514,true,TRUE,f
daw_two_step,21,107,498848,70,2,1,stage1_stim_2.png,stage1_stim_1.png,548,1,2,1,pink,pink_stim_2.png,pink_stim_1.png,160,2,false,1,1,39,0,0.7405218542163815,0.2940515355587505,0.5595088977468429,0.4871401901311346,3,87,514,true,FALSE,f
daw_two_step,22,108,502497,74,2,1,stage1_stim_2.png,stage1_stim_1.png,331,2,1,2,blue,blue_stim_1.png,blue_stim_2.png,326,2,true,2,1,40,0,0.7170799444602703,0.32259548173670965,0.5620103508578218,0.5042959652467193,3,88,514,false,FALSE,j
daw_two_step,23,109,506992,74,2,1,stage1_stim_2.png,stage1_stim_1.png,491,1,1,2,pink,pink_stim_1.png,pink_stim_2.png,875,2,false,1,1,40,0,0.7034366825565902,0.3234299020970873,0.5601395019744739,0.5313155853959507,3,89,514,true,FALSE,j
daw_two_step,24,110,510128,74,2,1,stage1_stim_2.png,stage1_stim_1.png,58,1,2,1,blue,blue_stim_2.png,blue_stim_1.png,357,1,false,2,0,40,0,0.7024132848089748,0.2955164068959989,0.5417360398323936,0.5400181632491211,3,90,514,false,TRUE,j
daw_two_step,25,111,513489,74,1,2,stage1_stim_1.png,stage1_stim_2.png,0,2,1,2,blue,blue_stim_1.png,blue_stim_2.png,574,2,false,2,1,40,0,0.6814614771855702,0.3079869684368261,0.5405197689263909,0.583059229208007,3,91,514,false,FALSE,j
daw_two_step,26,112,517121,70,1,2,stage1_stim_1.png,stage1_stim_2.png,422,1,1,2,pink,pink_stim_1.png,pink_stim_2.png,578,1,true,1,1,41,0,0.7024960749048815,0.2531041917356785,0.5259837559080415,0.543892289476112,3,92,514,false,FALSE,f
daw_two_step,27,113,520256,74,2,1,stage1_stim_2.png,stage1_stim_1.png,71,2,2,1,pink,pink_stim_2.png,pink_stim_1.png,456,1,true,1,0,42,0,0.729427835650115,0.2535092482830019,0.5167717851194663,0.5580665905737299,3,93,514,true,FALSE,j
daw_two_step,28,114,523777,74,2,1,stage1_stim_2.png,stage1_stim_1.png,144,2,2,1,blue,blue_stim_2.png,blue_stim_1.png,400,1,false,2,1,42,0,0.7193937591479829,0.26991117740078985,0.5280990779526605,0.5948087627448428,3,94,514,true,TRUE,j
daw_two_step,29,115,527888,70,1,2,stage1_stim_1.png,stage1_stim_2.png,367,1,1,2,pink,pink_stim_1.png,pink_stim_2.png,334,1,true,1,1,43,0,0.7486508549197749,0.30956300444425483,0.5619535107376735,0.6243731539459761,3,95,514,false,FALSE,f
daw_two_step,30,116,531792,70,1,2,stage1_stim_1.png,stage1_stim_2.png,155,1,2,1,pink,pink_stim_2.png,pink_stim_1.png,347,2,false,1,1,43,0,0.6991833893760666,0.3092964320053045,0.5980034910689694,0.6638432636112113,3,96,514,true,TRUE,f
daw_two_step,31,117,536281,70,2,1,stage1_stim_2.png,stage1_stim_1.png,438,2,2,1,blue,blue_stim_2.png,blue_stim_1.png,507,2,true,2,1,44,0,0.6959368708292962,0.3100191809105221,0.5893123448127171,0.6884349539402603,3,97,514,false,FALSE,f
daw_two_step,32,118,539986,70,2,1,stage1_stim_2.png,stage1_stim_1.png,193,2,2,1,blue,blue_stim_2.png,blue_stim_1.png,861,2,true,2,1,45,0,0.6524021649742027,0.3140439647737191,0.5683605371893125,0.7049364355377827,3,98,514,true,TRUE,f
daw_two_step,0,18,401760,-1,2,1,stage1_stim_2.png,stage1_stim_1.png,-1,NA,2,1,stage1,undefined_stim_2.png,undefined_stim_1.png,-1,NA,NA,-1,-1,0,0,0.75,0.25,0.4,0.6,1,0,562,NA,NA,NA
daw_two_step,1,19,405176,70,2,1,stage1_stim_2.png,stage1_stim_1.png,397,1,2,1,pink,pink_stim_2.png,pink_stim_1.png,452,2,false,1,1,0,0,0.6937454968884392,0.28536810896594045,0.4232658145746796,0.6723802893867308,1,1,562,NA,NA,f
daw_two_step,2,20,409624,70,1,2,stage1_stim_1.png,stage1_stim_2.png,1107,2,1,2,blue,blue_stim_1.png,blue_stim_2.png,442,1,true,2,1,1,0,0.7121323902402882,0.27424740140506826,0.4635294546917838,0.6718081095960574,1,2,562,false,FALSE,f
daw_two_step,3,21,413152,70,2,1,stage1_stim_2.png,stage1_stim_1.png,199,2,2,1,blue,blue_stim_2.png,blue_stim_1.png,28,2,true,2,1,2,0,0.6817077101558636,0.2801295084564373,0.434719002084473,0.6770472579181006,1,3,562,true,TRUE,f
daw_two_step,4,22,417264,74,2,1,stage1_stim_2.png,stage1_stim_1.png,258,1,2,1,blue,blue_stim_2.png,blue_stim_1.png,1029,1,true,2,0,3,0,0.7031928602676553,0.27095807617120027,0.4633337687052086,0.690528450105535,1,4,562,true,FALSE,j
daw_two_step,5,23,421344,70,1,2,stage1_stim_1.png,stage1_stim_2.png,324,1,2,1,blue,blue_stim_2.png,blue_stim_1.png,272,2,true,2,0,4,0,0.7410600489740637,0.2552691746851368,0.43888555027113335,0.6814507406088,1,5,562,true,TRUE,f
daw_two_step,6,24,425104,70,2,1,stage1_stim_2.png,stage1_stim_1.png,276,2,1,2,pink,pink_stim_1.png,pink_stim_2.png,318,1,false,1,0,4,0,0.7305605772570312,0.28312969679761557,0.455605512266701,0.6894985275576864,1,6,562,true,FALSE,f
daw_two_step,7,25,428864,74,1,2,stage1_stim_1.png,stage1_stim_2.png,225,2,2,1,pink,pink_stim_2.png,pink_stim_1.png,229,1,false,1,0,4,0,0.7438300615939456,0.3027917457906353,0.48852533307115376,0.6608849772857746,1,7,562,false,TRUE,j
daw_two_step,8,26,432064,70,1,2,stage1_stim_1.png,stage1_stim_2.png,292,1,2,1,pink,pink_stim_2.png,pink_stim_1.png,202,2,false,1,1,4,0,0.7385953032118366,0.34017962179168043,0.4652833175954621,0.7057220354867672,1,8,562,false,FALSE,f
daw_two_step,9,27,435824,74,1,2,stage1_stim_1.png,stage1_stim_2.png,332,2,2,1,blue,blue_stim_2.png,blue_stim_1.png,256,1,true,2,1,5,0,0.7313706436934835,0.3503659969822783,0.4044670834046112,0.7322486933220742,1,9,562,false,FALSE,j
daw_two_step,10,28,439832,74,2,1,stage1_stim_2.png,stage1_stim_1.png,223,1,2,1,blue,blue_stim_2.png,blue_stim_1.png,353,1,false,2,0,5,0,0.7272984390540141,0.3469101405981745,0.4340233966266809,0.7261532310457279,1,10,562,true,FALSE,j
daw_two_step,11,29,443224,74,2,1,stage1_stim_2.png,stage1_stim_1.png,259,1,2,1,pink,pink_stim_2.png,pink_stim_1.png,324,1,true,1,1,6,0,0.7363742695077561,0.3817266976436491,0.45060331276528665,0.7228526640681557,1,11,562,false,TRUE,j
daw_two_step,12,30,447416,74,2,1,stage1_stim_2.png,stage1_stim_1.png,282,1,2,1,pink,pink_stim_2.png,pink_stim_1.png,468,1,true,1,1,7,0,0.7123649226848296,0.42707943344284505,0.466622225339412,0.7448194700048151,1,12,562,true,TRUE,j
daw_two_step,13,31,451872,70,2,1,stage1_stim_2.png,stage1_stim_1.png,301,1,2,1,pink,pink_stim_2.png,pink_stim_1.png,965,2,true,1,1,8,0,0.7025446450220877,0.4098611829392743,0.4646628790732591,0.7332682105051886,1,13,562,true,TRUE,f
daw_two_step,14,32,455936,70,1,2,stage1_stim_1.png,stage1_stim_2.png,630,2,1,2,blue,blue_stim_1.png,blue_stim_2.png,478,1,false,2,1,8,0,0.6771364012784252,0.4552139187384703,0.4801534507360397,0.7487552488883311,1,14,562,true,FALSE,f
daw_two_step,15,33,459752,70,2,1,stage1_stim_2.png,stage1_stim_1.png,583,1,1,2,pink,pink_stim_1.png,pink_stim_2.png,712,1,false,1,1,8,0,0.6598036580612467,0.4193993621138046,0.4497537750671072,0.7162144216765153,1,15,562,false,FALSE,f
daw_two_step,16,34,463064,70,2,1,stage1_stim_2.png,stage1_stim_1.png,279,1,2,1,pink,pink_stim_2.png,pink_stim_1.png,388,2,true,1,1,9,0,0.6141300744393765,0.4240683278951951,0.4257444282441808,0.7125604232689051,1,16,562,false,TRUE,f
daw_two_step,17,35,466848,70,2,1,stage1_stim_2.png,stage1_stim_1.png,606,1,2,1,pink,pink_stim_2.png,pink_stim_1.png,580,2,false,1,1,9,0,0.6260065086478971,0.4321296393507467,0.4517351126580312,0.7061461895214495,1,17,562,true,TRUE,f
daw_two_step,18,36,470936,70,1,2,stage1_stim_1.png,stage1_stim_2.png,235,2,2,1,pink,pink_stim_2.png,pink_stim_1.png,507,2,false,1,0,9,0,0.6148658606545374,0.4395573214896088,0.5014853553786337,0.6956664407518807,1,18,562,false,FALSE,f
daw_two_step,19,37,474584,70,2,1,stage1_stim_2.png,stage1_stim_1.png,339,1,1,2,pink,pink_stim_1.png,pink_stim_2.png,413,1,false,1,1,9,0,0.6408838043989981,0.49150758977474135,0.467887468690881,0.7251780799230118,1,19,562,false,FALSE,f
daw_two_step,20,38,478672,74,2,1,stage1_stim_2.png,stage1_stim_1.png,292,1,2,1,blue,blue_stim_2.png,blue_stim_1.png,428,1,false,2,0,9,0,0.6625811802293531,0.4536754092746671,0.4649112142438623,0.7186967243636417,1,20,562,false,TRUE,j
daw_two_step,21,39,482528,70,2,1,stage1_stim_2.png,stage1_stim_1.png,406,1,1,2,pink,pink_stim_1.png,pink_stim_2.png,464,1,false,1,1,9,0,0.7085170522826545,0.42718119916477953,0.46830448746879394,0.7153656127903716,1,21,562,false,TRUE,f
daw_two_step,22,40,486824,74,2,1,stage1_stim_2.png,stage1_stim_1.png,273,1,1,2,pink,pink_stim_1.png,pink_stim_2.png,596,2,true,1,1,10,0,0.73008140425942,0.4304510935350881,0.475114971886004,0.7062856633044569,1,22,562,false,TRUE,j
daw_two_step,23,41,491024,70,2,1,stage1_stim_2.png,stage1_stim_1.png,411,1,2,1,blue,blue_stim_2.png,blue_stim_1.png,768,2,true,2,0,11,0,0.7307239952977695,0.3846612302214126,0.4918349338815716,0.6858535894806835,1,23,562,true,TRUE,f
daw_two_step,24,42,494752,70,2,1,stage1_stim_2.png,stage1_stim_1.png,248,1,1,2,pink,pink_stim_1.png,pink_stim_2.png,476,1,false,1,1,11,0,0.7197383322717933,0.34754164933473025,0.5195779462608648,0.6835713964396533,1,24,562,true,TRUE,f
daw_two_step,25,43,498160,74,2,1,stage1_stim_2.png,stage1_stim_1.png,366,1,2,1,blue,blue_stim_2.png,blue_stim_1.png,512,1,false,2,0,11,0,0.7401991433024779,0.3527807976567735,0.5458890155445871,0.6586286151199559,1,25,562,false,TRUE,j
daw_two_step,26,44,502048,70,2,1,stage1_stim_2.png,stage1_stim_1.png,224,2,1,2,pink,pink_stim_1.png,pink_stim_2.png,419,1,true,1,0,12,0,0.7149721828808877,0.3949537434956894,0.5569877899401067,0.6776901235076338,1,26,562,false,FALSE,f
daw_two_step,27,45,505608,74,2,1,stage1_stim_2.png,stage1_stim_1.png,197,1,1,2,pink,pink_stim_1.png,pink_stim_2.png,374,2,true,1,1,13,0,0.7382613034562517,0.42557195607789167,0.5542501187804328,0.6799496425509278,1,27,562,true,FALSE,j
daw_two_step,28,46,509440,74,1,2,stage1_stim_1.png,stage1_stim_2.png,147,2,1,2,blue,blue_stim_1.png,blue_stim_2.png,369,2,false,2,1,13,0,0.7132657509037784,0.4361474181643833,0.5331001914013946,0.7077668024988611,1,28,562,true,FALSE,j
daw_two_step,29,47,513032,70,1,2,stage1_stim_1.png,stage1_stim_2.png,316,2,2,1,blue,blue_stim_2.png,blue_stim_1.png,512,2,false,2,1,13,0,0.6802917141744873,0.3931727115634325,0.5646469989640808,0.7293588470898442,1,29,562,false,TRUE,f
daw_two_step,30,48,516328,74,2,1,stage1_stim_2.png,stage1_stim_1.png,190,1,1,2,blue,blue_stim_1.png,blue_stim_2.png,329,2,true,2,0,14,0,0.6921681483830079,0.4379571257783792,0.5470555260176596,0.7300640994531402,1,30,562,false,FALSE,j
daw_two_step,31,49,520424,74,2,1,stage1_stim_2.png,stage1_stim_1.png,239,1,1,2,pink,pink_stim_1.png,pink_stim_2.png,646,2,false,1,1,14,0,0.6413642787604997,0.4054323077437663,0.576656805004892,0.7030547934620297,1,31,562,true,TRUE,j
daw_two_step,32,50,524264,70,2,1,stage1_stim_2.png,stage1_stim_1.png,306,1,2,1,pink,pink_stim_2.png,pink_stim_1.png,554,2,true,1,1,15,0,0.6350302593942541,0.43332237113961225,0.5510095101060722,0.6337281454665868,1,32,562,false,TRUE,f
daw_two_step,0,52,533272,74,1,2,stage1_stim_1.png,stage1_stim_2.png,660,2,1,2,blue,blue_stim_1.png,blue_stim_2.png,790,2,true,2,1,16,0,0.6350302593942541,0.43332237113961225,0.5510095101060722,0.6337281454665868,2,33,562,NA,NA,j
daw_two_step,1,53,537640,74,1,2,stage1_stim_1.png,stage1_stim_2.png,341,2,2,1,blue,blue_stim_2.png,blue_stim_1.png,788,1,false,2,1,16,0,0.5837554437544619,0.4181141184300716,0.552988036639247,0.6280025920465009,2,34,562,true,TRUE,j
daw_two_step,2,54,541744,70,1,2,stage1_stim_1.png,stage1_stim_2.png,261,2,1,2,blue,blue_stim_1.png,blue_stim_2.png,463,1,true,2,1,17,0,0.5853254376033981,0.4520065765801789,0.5892579477674783,0.6216374610570333,2,35,562,false,TRUE,f
daw_two_step,3,55,545688,74,1,2,stage1_stim_1.png,stage1_stim_2.png,371,2,2,1,blue,blue_stim_2.png,blue_stim_1.png,745,1,true,2,1,18,0,0.6077089059857922,0.4346738333630003,0.6137521064275434,0.5912377853881009,2,36,562,true,TRUE,j
daw_two_step,4,56,549856,74,2,1,stage1_stim_2.png,stage1_stim_1.png,337,1,2,1,blue,blue_stim_2.png,blue_stim_1.png,672,1,true,2,0,19,0,0.5728630995951823,0.39910613502271064,0.6397424995696727,0.5444962620382915,2,37,562,true,FALSE,j
daw_two_step,5,57,554208,70,2,1,stage1_stim_2.png,stage1_stim_1.png,718,1,2,1,pink,pink_stim_2.png,pink_stim_1.png,1104,2,true,1,1,20,0,0.6493833593010687,0.4114084803281226,0.6542775422025545,0.5881403900912467,2,38,562,true,TRUE,f
daw_two_step,6,58,558560,74,1,2,stage1_stim_1.png,stage1_stim_2.png,530,2,2,1,blue,blue_stim_2.png,blue_stim_1.png,449,1,true,2,1,21,0,0.6616857046064807,0.3778105936403699,0.6550929970481583,0.5861674378401652,2,39,562,true,FALSE,j
daw_two_step,7,59,562944,70,2,1,stage1_stim_2.png,stage1_stim_1.png,384,1,1,2,pink,pink_stim_1.png,pink_stim_2.png,984,1,false,1,1,21,0,0.6727195413894624,0.4137354009521446,0.6938250600875709,0.6018479718214066,2,40,562,true,FALSE,f
daw_two_step,8,60,567976,74,1,2,stage1_stim_1.png,stage1_stim_2.png,624,2,1,2,pink,pink_stim_1.png,pink_stim_2.png,945,2,false,1,0,21,0,0.6797402235591326,0.42431086303863624,0.6650528601581076,0.6192589482773977,2,41,562,false,FALSE,j
daw_two_step,9,61,571992,70,1,2,stage1_stim_1.png,stage1_stim_2.png,732,2,2,1,pink,pink_stim_2.png,pink_stim_1.png,591,2,true,1,0,22,0,0.6639546159278257,0.430170924924953,0.641036479998715,0.6542892777125513,2,42,562,false,TRUE,f
daw_two_step,10,62,576224,74,2,1,stage1_stim_2.png,stage1_stim_1.png,538,1,1,2,blue,blue_stim_1.png,blue_stim_2.png,952,2,true,2,0,23,0,0.6536131985812732,0.4106646624791462,0.6235579141013635,0.6610617253658749,2,43,562,true,FALSE,j
daw_two_step,11,63,580896,70,2,1,stage1_stim_2.png,stage1_stim_1.png,613,1,2,1,pink,pink_stim_2.png,pink_stim_1.png,559,2,true,1,1,24,0,0.6933272115581046,0.41422253410131255,0.6417091603925082,0.6279870177314881,2,44,562,true,TRUE,f
daw_two_step,12,64,584624,70,2,1,stage1_stim_2.png,stage1_stim_1.png,516,1,2,1,pink,pink_stim_2.png,pink_stim_1.png,501,2,false,1,1,24,0,0.7079012399959309,0.45276919872315874,0.6528900191574574,0.6334611409376913,2,45,562,true,TRUE,f
daw_two_step,13,65,588664,74,2,1,stage1_stim_2.png,stage1_stim_1.png,268,1,2,1,pink,pink_stim_2.png,pink_stim_1.png,987,1,true,1,1,25,0,0.714505289369334,0.4072998913679016,0.6824016583285885,0.6708490169387364,2,46,562,false,TRUE,j
daw_two_step,14,66,592968,70,1,2,stage1_stim_1.png,stage1_stim_2.png,876,2,1,2,pink,pink_stim_1.png,pink_stim_2.png,878,1,true,1,0,26,0,0.7133925331240076,0.46602565225511006,0.7079285109311629,0.6358471907549326,2,47,562,true,FALSE,f
daw_two_step,15,67,596408,74,2,1,stage1_stim_2.png,stage1_stim_1.png,182,1,1,2,pink,pink_stim_1.png,pink_stim_2.png,433,2,false,1,1,26,0,0.7033500278743334,0.4760405887037658,0.7113240448971757,0.6244389812232787,2,48,562,true,FALSE,j
daw_two_step,16,68,601248,70,2,1,stage1_stim_2.png,stage1_stim_1.png,368,2,2,1,blue,blue_stim_2.png,blue_stim_1.png,1223,2,true,2,1,27,0,0.7191237741933961,0.5020585324482265,0.7014493348681262,0.6399260196064211,2,49,562,false,FALSE,f
daw_two_step,17,69,605432,74,2,1,stage1_stim_2.png,stage1_stim_1.png,339,1,1,2,pink,pink_stim_1.png,pink_stim_2.png,359,2,false,1,1,27,0,0.7233372232966975,0.4808496561764,0.6927376682059021,0.636625452628849,2,50,562,true,FALSE,j
daw_two_step,18,70,610480,74,1,2,stage1_stim_1.png,stage1_stim_2.png,321,1,1,2,pink,pink_stim_1.png,pink_stim_2.png,1209,2,true,1,1,28,0,0.7430300612383706,0.511280286984669,0.6727495685995518,0.6716904807461491,2,51,562,false,TRUE,j
daw_two_step,19,71,614552,74,2,1,stage1_stim_2.png,stage1_stim_1.png,270,1,1,2,blue,blue_stim_1.png,blue_stim_2.png,494,2,false,2,0,28,0,0.7002395661559674,0.5073671106076254,0.6811195412461458,0.6839928260515611,2,52,562,true,TRUE,j
daw_two_step,20,72,618232,74,2,1,stage1_stim_2.png,stage1_stim_1.png,277,2,1,2,blue,blue_stim_1.png,blue_stim_2.png,318,2,true,2,1,29,0,0.7018995522628723,0.4992067448938188,0.6652614981975258,0.6489909998677572,2,53,562,false,FALSE,j
daw_two_step,21,73,622088,70,1,2,stage1_stim_1.png,stage1_stim_2.png,463,1,1,2,pink,pink_stim_1.png,pink_stim_2.png,407,1,false,1,1,29,0,0.7414713433402997,0.5045760389581748,0.6531603226507987,0.6426258688782897,2,54,562,true,FALSE,f
daw_two_step,22,74,626088,74,2,1,stage1_stim_2.png,stage1_stim_1.png,298,1,1,2,pink,pink_stim_1.png,pink_stim_2.png,348,2,false,1,1,29,0,0.7306385932638543,0.5594576074303783,0.6101367441557729,0.587123007174793,2,55,562,false,TRUE,j
daw_two_step,23,75,629528,70,2,1,stage1_stim_2.png,stage1_stim_1.png,282,1,2,1,pink,pink_stim_2.png,pink_stim_1.png,488,2,true,1,1,30,0,0.7195185123645798,0.6143391759025818,0.5929310049112627,0.6602459960475471,2,56,562,false,TRUE,f
daw_two_step,24,76,632888,74,2,1,stage1_stim_2.png,stage1_stim_1.png,302,1,2,1,blue,blue_stim_2.png,blue_stim_1.png,375,1,true,2,0,31,0,0.6625406817668086,0.6201282330153352,0.5778284729467692,0.6667316215014919,2,57,562,true,TRUE,j
daw_two_step,25,77,636792,74,2,1,stage1_stim_2.png,stage1_stim_1.png,307,1,2,1,pink,pink_stim_2.png,pink_stim_1.png,657,1,false,1,1,31,0,0.6587941429890581,0.6169244208639835,0.5681488914113347,0.7069913621416708,2,58,562,true,TRUE,j
daw_two_step,26,78,640280,70,1,2,stage1_stim_1.png,stage1_stim_2.png,271,2,2,1,pink,pink_stim_2.png,pink_stim_1.png,606,2,true,1,0,32,0,0.7036228168056925,0.6068819156143093,0.5223590280976592,0.7247020903300405,2,59,562,false,FALSE,f
daw_two_step,27,79,644008,74,1,2,stage1_stim_1.png,stage1_stim_2.png,288,2,2,1,blue,blue_stim_2.png,blue_stim_1.png,516,1,true,2,1,33,0,0.7078652289776123,0.6067720960951792,0.538742604630847,0.7341864749960292,2,60,562,true,TRUE,j
daw_two_step,28,80,648304,70,1,2,stage1_stim_1.png,stage1_stim_2.png,270,2,2,1,blue,blue_stim_2.png,blue_stim_1.png,611,2,true,2,1,34,0,0.6763553516682285,0.6121413901595352,0.5606788538581468,0.7184008673647223,2,61,562,true,TRUE,f
daw_two_step,29,81,652088,74,1,2,stage1_stim_1.png,stage1_stim_2.png,393,2,1,2,pink,pink_stim_1.png,pink_stim_2.png,424,2,true,1,0,35,0,0.7017411202551413,0.6304123768434716,0.6072871230309876,0.7380436990761711,2,62,562,true,TRUE,j
daw_two_step,30,82,655560,70,2,1,stage1_stim_2.png,stage1_stim_1.png,266,2,1,2,blue,blue_stim_1.png,blue_stim_2.png,277,1,true,2,1,36,0,0.7394553111143154,0.6415111512389912,0.6493534476773456,0.7402589250934739,2,63,562,true,TRUE,f
daw_two_step,31,83,658840,74,2,1,stage1_stim_2.png,stage1_stim_1.png,391,1,2,1,pink,pink_stim_2.png,pink_stim_1.png,311,1,true,1,1,37,0,0.7426970225516167,0.6276052177246534,0.6478015013701044,0.6832810944957027,2,64,562,true,FALSE,j
daw_two_step,32,84,662248,74,1,2,stage1_stim_1.png,stage1_stim_2.png,301,2,1,2,blue,blue_stim_1.png,blue_stim_2.png,393,2,false,2,1,37,0,0.7316173770083235,0.6023006540368077,0.6635474032827042,0.7008557296899205,2,65,562,true,FALSE,j
daw_two_step,0,86,669000,74,2,1,stage1_stim_2.png,stage1_stim_1.png,453,1,2,1,pink,pink_stim_2.png,pink_stim_1.png,582,1,true,1,1,38,0,0.7316173770083235,0.6023006540368077,0.6635474032827042,0.7008557296899205,3,66,562,NA,NA,j
daw_two_step,1,87,672328,70,1,2,stage1_stim_1.png,stage1_stim_2.png,343,1,2,1,pink,pink_stim_2.png,pink_stim_1.png,367,2,true,1,1,39,0,0.7362308567249549,0.5499772914245933,0.6047094986209628,0.6808676300835702,3,67,562,true,TRUE,f
daw_two_step,2,88,675536,74,2,1,stage1_stim_2.png,stage1_stim_1.png,277,1,2,1,pink,pink_stim_2.png,pink_stim_1.png,329,1,false,1,1,39,0,0.7388526373582909,0.5388572105253188,0.6073312792542988,0.6971594015379728,3,68,562,true,TRUE,j
daw_two_step,3,89,679240,70,2,1,stage1_stim_2.png,stage1_stim_1.png,259,2,2,1,pink,pink_stim_2.png,pink_stim_1.png,402,2,true,1,0,40,0,0.7004940566109079,0.5291252086664738,0.6394830455210203,0.703969885955183,3,69,562,false,FALSE,f
daw_two_step,4,90,682632,74,1,2,stage1_stim_1.png,stage1_stim_2.png,257,2,1,2,blue,blue_stim_1.png,blue_stim_2.png,359,2,true,2,1,41,0,0.6885293124535079,0.5289305647114657,0.6529642377084547,0.7367989093529337,3,70,562,true,TRUE,j
daw_two_step,5,91,686744,70,1,2,stage1_stim_1.png,stage1_stim_2.png,235,1,1,2,pink,pink_stim_1.png,pink_stim_2.png,376,1,true,1,1,42,0,0.7010540776532534,0.5305700614247512,0.6984280019313097,0.7427979514783757,3,71,562,true,FALSE,f
daw_two_step,6,92,690456,74,1,2,stage1_stim_1.png,stage1_stim_2.png,374,2,2,1,pink,pink_stim_2.png,pink_stim_1.png,420,1,true,1,0,43,0,0.6651521390704069,0.5436472406663838,0.726245161879243,0.7465858062674173,3,72,562,true,FALSE,j
daw_two_step,7,93,694264,70,2,1,stage1_stim_2.png,stage1_stim_1.png,271,2,1,2,pink,pink_stim_1.png,pink_stim_2.png,316,1,false,1,0,43,0,0.6196828317151497,0.5705204132386892,0.7478837921889696,0.737747421997887,3,73,562,true,TRUE,f
daw_two_step,8,94,697672,70,2,1,stage1_stim_2.png,stage1_stim_1.png,387,1,2,1,pink,pink_stim_2.png,pink_stim_1.png,319,2,false,1,1,43,0,0.6271895504797562,0.6041531287036211,0.7276220491509653,0.7460722671317608,3,74,562,false,FALSE,f
daw_two_step,9,95,701240,70,2,1,stage1_stim_2.png,stage1_stim_1.png,290,1,1,2,pink,pink_stim_1.png,pink_stim_2.png,309,1,true,1,1,44,0,0.6532074942242169,0.6066246628549732,0.742635763068216,0.7374094361082034,3,75,562,false,TRUE,f
daw_two_step,10,96,705120,70,1,2,stage1_stim_1.png,stage1_stim_2.png,373,2,2,1,pink,pink_stim_2.png,pink_stim_1.png,318,2,true,1,0,45,0,0.6216317963931385,0.5833388842621159,0.741052228449776,0.7240457771821759,3,76,562,true,FALSE,f
daw_two_step,11,97,708904,74,1,2,stage1_stim_1.png,stage1_stim_2.png,239,2,2,1,pink,pink_stim_2.png,pink_stim_1.png,455,1,true,1,0,46,0,0.6293259293035312,0.5233376953805977,0.7482218253438249,0.7256409282644455,3,77,562,true,TRUE,j
daw_two_step,12,98,713072,70,1,2,stage1_stim_1.png,stage1_stim_2.png,363,2,2,1,blue,blue_stim_2.png,blue_stim_1.png,417,2,false,2,1,46,0,0.6303122992657774,0.5066046061798531,0.7196229662657333,0.7333847061231411,3,78,562,true,TRUE,f
daw_two_step,13,99,716872,74,2,1,stage1_stim_2.png,stage1_stim_1.png,389,2,2,1,blue,blue_stim_2.png,blue_stim_1.png,379,1,false,2,1,46,0,0.6209704520867295,0.4867668520045581,0.7078305778152856,0.7243047566372264,3,79,562,false,TRUE,j
daw_two_step,14,100,720920,74,2,1,stage1_stim_2.png,stage1_stim_1.png,240,2,2,1,pink,pink_stim_2.png,pink_stim_1.png,535,1,false,1,0,46,0,0.6433539204691237,0.5175070055575225,0.7373422169864167,0.7439529015123376,3,80,562,false,TRUE,j
daw_two_step,15,101,725160,70,2,1,stage1_stim_2.png,stage1_stim_1.png,331,1,1,2,pink,pink_stim_1.png,pink_stim_2.png,491,1,false,1,1,46,0,0.6931209046336285,0.49541108132270506,0.7400328574883687,0.7454716364011708,3,81,562,false,FALSE,f
daw_two_step,16,102,728840,74,1,2,stage1_stim_1.png,stage1_stim_2.png,272,2,2,1,blue,blue_stim_2.png,blue_stim_1.png,371,1,false,2,1,46,0,0.6645710803008738,0.4815051478083673,0.748252621672333,0.7496099125113149,3,82,562,false,FALSE,j
daw_two_step,17,103,732056,74,2,1,stage1_stim_2.png,stage1_stim_1.png,217,1,1,2,pink,pink_stim_1.png,pink_stim_2.png,275,2,false,1,1,46,0,0.6779551375974027,0.5054440416431133,0.7295122852460706,0.7086928280085347,3,83,562,false,FALSE,j
daw_two_step,18,104,735824,74,1,2,stage1_stim_1.png,stage1_stim_2.png,369,2,1,2,blue,blue_stim_1.png,blue_stim_2.png,285,2,false,2,1,46,0,0.6418004249692539,0.5066594308309965,0.7263557974781037,0.7386116559975306,3,84,562,false,FALSE,j
daw_two_step,19,105,739560,70,2,1,stage1_stim_2.png,stage1_stim_1.png,307,2,2,1,pink,pink_stim_2.png,pink_stim_1.png,230,2,false,1,0,46,0,0.6525654960068242,0.5013879476303148,0.7460378510650322,0.7428426319520498,3,85,562,false,TRUE,f
daw_two_step,20,106,743136,70,2,1,stage1_stim_2.png,stage1_stim_1.png,283,2,2,1,blue,blue_stim_2.png,blue_stim_1.png,319,2,false,2,1,46,0,0.6445078824143566,0.496484007352388,0.7318920843107117,0.737705221637652,3,86,562,false,TRUE,f
daw_two_step,21,107,746592,70,1,2,stage1_stim_1.png,stage1_stim_2.png,331,1,1,2,pink,pink_stim_1.png,pink_stim_2.png,275,1,false,1,1,46,0,0.6491768481957472,0.4740382675307506,0.7124675606964511,0.7497700131626025,3,87,562,false,FALSE,f
daw_two_step,22,108,750112,70,2,1,stage1_stim_2.png,stage1_stim_1.png,251,2,1,2,pink,pink_stim_1.png,pink_stim_2.png,337,1,true,1,0,47,0,0.6636331802675697,0.4544409985354933,0.7334195130238145,0.7220697080707695,3,88,562,false,FALSE,f
daw_two_step,23,109,753544,74,2,1,stage1_stim_2.png,stage1_stim_1.png,448,1,2,1,pink,pink_stim_2.png,pink_stim_1.png,322,1,true,1,1,48,0,0.6942107512409659,0.44168552486862134,0.7464966922654471,0.7048073030564764,3,89,562,true,FALSE,j
daw_two_step,24,110,757136,74,2,1,stage1_stim_2.png,stage1_stim_1.png,262,1,2,1,pink,pink_stim_2.png,pink_stim_1.png,269,1,true,1,1,49,0,0.6677183544125596,0.4329660676714428,0.7386583727883304,0.7172674071940546,3,90,562,true,TRUE,j
daw_two_step,25,111,760640,74,1,2,stage1_stim_1.png,stage1_stim_2.png,298,2,2,1,pink,pink_stim_2.png,pink_stim_1.png,285,1,true,1,0,50,0,0.6802431196123051,0.4486466016526842,0.716212632966693,0.7197389413454066,3,91,562,true,FALSE,j
daw_two_step,26,112,763928,74,1,2,stage1_stim_1.png,stage1_stim_2.png,337,2,2,1,blue,blue_stim_2.png,blue_stim_1.png,280,1,true,2,1,51,0,0.7061141655440925,0.4528600507559856,0.6929268543738357,0.710782736477621,3,92,562,true,TRUE,j
daw_two_step,27,113,767304,74,2,1,stage1_stim_2.png,stage1_stim_1.png,339,1,1,2,pink,pink_stim_1.png,pink_stim_2.png,222,2,false,1,1,51,0,0.6999494114100334,0.4043803607825477,0.7401767595490085,0.7262697748607635,3,93,562,true,FALSE,j
daw_two_step,28,114,771072,74,1,2,stage1_stim_1.png,stage1_stim_2.png,299,2,1,2,pink,pink_stim_1.png,pink_stim_2.png,371,2,false,1,0,51,0,0.6926152512408479,0.3465839933928999,0.7400359625808366,0.7454392460128746,3,94,562,false,FALSE,j
daw_two_step,29,115,775792,70,2,1,stage1_stim_2.png,stage1_stim_1.png,504,1,2,1,pink,pink_stim_2.png,pink_stim_1.png,930,2,false,1,1,51,0,0.6637584296074717,0.31360559885542566,0.7439254875213672,0.732618368904376,3,95,562,false,FALSE,f
daw_two_step,30,116,779312,70,2,1,stage1_stim_2.png,stage1_stim_1.png,306,1,1,2,pink,pink_stim_1.png,pink_stim_2.png,286,1,true,1,1,52,0,0.63146638265479,0.314922952123197,0.7472778580531741,0.7380924921105793,3,96,562,false,TRUE,f
daw_two_step,31,117,783008,74,1,2,stage1_stim_1.png,stage1_stim_2.png,254,1,2,1,pink,pink_stim_2.png,pink_stim_1.png,39,1,true,1,1,53,0,0.6397395849247762,0.3408668864857527,0.7373856244327422,0.7181489771276088,3,97,562,true,TRUE,j
daw_two_step,32,118,786976,70,1,2,stage1_stim_1.png,stage1_stim_2.png,299,2,1,2,pink,pink_stim_1.png,pink_stim_2.png,387,1,false,1,0,53,0,0.5809016802630348,0.2951933028638825,0.6952633499191637,0.7459661370755422,3,98,562,true,FALSE,f
daw_two_step,0,18,589778,70,1,2,stage1_stim_1.png,stage1_stim_2.png,1308,1,2,1,pink,pink_stim_2.png,pink_stim_1.png,1665,2,false,1,1,0,0,0.6,0.4,0.75,0.25,1,0,278,NA,NA,f
daw_two_step,1,19,594987,74,1,2,stage1_stim_1.png,stage1_stim_2.png,1340,1,2,1,pink,pink_stim_2.png,pink_stim_1.png,1076,1,true,1,1,1,0,0.6609389908691689,0.40462848290810743,0.738888296466343,0.25667050603432845,1,1,278,false,TRUE,j
daw_two_step,2,20,599981,74,1,2,stage1_stim_1.png,stage1_stim_2.png,976,1,2,1,pink,pink_stim_2.png,pink_stim_1.png,1291,1,false,1,1,1,0,0.6483288595662453,0.37659059688863855,0.7049507725140285,0.2557126587505092,1,2,278,true,TRUE,j
daw_two_step,3,21,605656,70,1,2,stage1_stim_1.png,stage1_stim_2.png,790,1,1,2,blue,blue_stim_1.png,blue_stim_2.png,1553,1,true,2,0,2,0,0.6994697784557171,0.3725593325386445,0.720117835034606,0.252885446621748,1,3,278,false,TRUE,f
daw_two_step,4,22,611240,74,2,1,stage1_stim_2.png,stage1_stim_1.png,1517,1,2,1,blue,blue_stim_2.png,blue_stim_1.png,1499,1,true,2,0,3,0,0.6930049915357628,0.3497454516360922,0.7379596906615906,0.254081481106883,1,4,278,true,TRUE,j
daw_two_step,5,23,617335,70,2,1,stage1_stim_2.png,stage1_stim_1.png,1431,1,2,1,pink,pink_stim_2.png,pink_stim_1.png,1165,2,false,1,1,3,0,0.6787802315295671,0.30362284569454784,0.7413891762086149,0.2504624658932034,1,5,278,true,TRUE,f
daw_two_step,6,24,622225,74,2,1,stage1_stim_2.png,stage1_stim_1.png,151,1,2,1,blue,blue_stim_2.png,blue_stim_1.png,1289,1,true,2,0,4,0,0.7299211504190388,0.30073992342580586,0.7259344883236617,0.2525077215468179,1,6,278,false,TRUE,j
daw_two_step,7,25,627603,74,1,2,stage1_stim_1.png,stage1_stim_2.png,1393,1,2,1,blue,blue_stim_2.png,blue_stim_1.png,870,1,true,2,0,5,0,0.7458012386937293,0.33125898687640015,0.7067709966931017,0.26701772491497366,1,7,278,true,TRUE,j
daw_two_step,8,26,632550,74,1,2,stage1_stim_1.png,stage1_stim_2.png,870,1,1,2,pink,pink_stim_1.png,pink_stim_2.png,754,2,false,1,1,5,0,0.7377350228070871,0.34377630922386615,0.728068713529969,0.26702633161551265,1,8,278,true,TRUE,j
daw_two_step,9,27,637417,74,1,2,stage1_stim_1.png,stage1_stim_2.png,927,1,1,2,pink,pink_stim_1.png,pink_stim_2.png,1084,2,false,1,1,5,0,0.7324915659835036,0.31150766252628637,0.7160852588828668,0.2659666150852239,1,9,278,false,TRUE,j
daw_two_step,10,28,642685,74,1,2,stage1_stim_1.png,stage1_stim_2.png,798,1,2,1,pink,pink_stim_2.png,pink_stim_1.png,1567,1,true,1,1,6,0,0.7213847153542082,0.26591629726437854,0.7474999306376867,0.25278781866385724,1,10,278,false,TRUE,j
daw_two_step,11,29,647882,70,2,1,stage1_stim_2.png,stage1_stim_1.png,1320,1,2,1,blue,blue_stim_2.png,blue_stim_1.png,974,2,false,2,0,6,0,0.7462530886882182,0.27672975093076985,0.7396088216988485,0.2822864969860708,1,11,278,true,TRUE,f
daw_two_step,12,30,653472,74,1,2,stage1_stim_1.png,stage1_stim_2.png,963,1,1,2,pink,pink_stim_1.png,pink_stim_2.png,1607,2,true,1,1,7,0,0.7395826975250414,0.2779954072848608,0.7451891964490774,0.2744916715624885,1,12,278,false,TRUE,j
daw_two_step,13,31,660244,70,1,2,stage1_stim_1.png,stage1_stim_2.png,1716,1,1,2,blue,blue_stim_1.png,blue_stim_2.png,1658,1,true,2,0,8,0,0.7457245730220464,0.2737416343206346,0.7202374649496939,0.2720537667652025,1,13,278,true,TRUE,f
daw_two_step,14,32,665485,70,2,1,stage1_stim_2.png,stage1_stim_1.png,1129,1,1,2,pink,pink_stim_1.png,pink_stim_2.png,1355,1,true,1,1,9,0,0.7341510520769644,0.2863050423657263,0.7236032685833754,0.2733194231192934,1,14,278,true,TRUE,f
daw_two_step,15,33,671657,70,2,1,stage1_stim_2.png,stage1_stim_1.png,1356,1,1,2,pink,pink_stim_1.png,pink_stim_2.png,1488,1,true,1,1,10,0,0.7465162108719984,0.2882573635173619,0.7041468019767393,0.30185785470564536,1,15,278,true,TRUE,f
daw_two_step,16,34,676423,74,1,2,stage1_stim_1.png,stage1_stim_2.png,1057,1,1,2,pink,pink_stim_1.png,pink_stim_2.png,1022,2,false,1,1,10,0,0.7186170140443635,0.28142749633216557,0.7053872548374931,0.33060594712308855,1,16,278,true,TRUE,j
daw_two_step,17,35,682633,74,1,2,stage1_stim_1.png,stage1_stim_2.png,1246,1,2,1,pink,pink_stim_2.png,pink_stim_1.png,1672,1,false,1,1,10,0,0.7472299235944538,0.2745976291469692,0.7179506628825848,0.3817468660125603,1,17,278,false,TRUE,j
daw_two_step,18,36,688669,70,2,1,stage1_stim_2.png,stage1_stim_1.png,1716,1,1,2,blue,blue_stim_1.png,blue_stim_2.png,1250,1,true,2,0,11,0,0.7350152681021593,0.25457164156035095,0.7271699054750969,0.3742410470320647,1,18,278,false,TRUE,f
daw_two_step,19,37,694209,74,2,1,stage1_stim_2.png,stage1_stim_1.png,1322,1,1,2,pink,pink_stim_1.png,pink_stim_2.png,1557,2,false,1,1,11,0,0.694626863048299,0.2572943653654288,0.728249992176392,0.3550775554015047,1,19,278,true,TRUE,j
daw_two_step,20,38,699858,74,1,2,stage1_stim_1.png,stage1_stim_2.png,1064,1,1,2,pink,pink_stim_1.png,pink_stim_2.png,1597,2,true,1,1,12,0,0.7084376602725797,0.283955307965371,0.7299200822769124,0.3815439644240984,1,20,278,false,TRUE,j
daw_two_step,21,39,706049,70,1,2,stage1_stim_1.png,stage1_stim_2.png,1701,1,1,2,pink,pink_stim_1.png,pink_stim_2.png,1781,1,true,1,1,13,0,0.687743647727782,0.27764538639807634,0.7433696541060839,0.3630872630406245,1,21,278,true,TRUE,f
daw_two_step,22,40,710867,-1,2,1,stage1_stim_2.png,stage1_stim_1.png,-1,NA,2,1,stage1,undefined_stim_2.png,undefined_stim_1.png,-1,NA,NA,-1,-1,13,0,0.6760040865651064,0.29307729120645276,0.7267999514155401,0.3957635985083478,1,22,278,true,NA,NA
daw_two_step,23,41,716558,74,1,2,stage1_stim_1.png,stage1_stim_2.png,980,1,2,1,blue,blue_stim_2.png,blue_stim_1.png,1369,1,true,2,0,14,0,0.6883311577155915,0.266238340948987,0.7446989268921704,0.4299508809993719,1,23,278,NA,NA,j
daw_two_step,24,42,722337,70,2,1,stage1_stim_2.png,stage1_stim_1.png,1327,1,1,2,blue,blue_stim_1.png,blue_stim_2.png,1147,1,true,2,0,15,0,0.7017517625572348,0.27329366176515424,0.7171853859343051,0.42174908954293794,1,24,278,true,TRUE,f
daw_two_step,25,43,727374,70,2,1,stage1_stim_2.png,stage1_stim_1.png,980,1,1,2,blue,blue_stim_1.png,blue_stim_2.png,1207,1,false,2,0,15,0,0.6687687686633187,0.26218681113585884,0.6973431670660182,0.4207912422591187,1,25,278,true,TRUE,f
daw_two_step,26,44,732804,70,1,2,stage1_stim_1.png,stage1_stim_2.png,878,1,1,2,blue,blue_stim_1.png,blue_stim_2.png,1365,1,true,2,0,16,0,0.6827978796424848,0.3003024983093832,0.709934914818807,0.4408706103664464,1,26,278,false,TRUE,f
daw_two_step,27,45,738535,74,1,2,stage1_stim_1.png,stage1_stim_2.png,1351,1,2,1,pink,pink_stim_2.png,pink_stim_1.png,1214,1,true,1,1,17,0,0.7391579117238005,0.265405303724922,0.6457245387446752,0.4205464695846824,1,27,278,true,TRUE,j
daw_two_step,28,46,743438,74,1,2,stage1_stim_1.png,stage1_stim_2.png,1322,1,2,1,pink,pink_stim_2.png,pink_stim_1.png,908,1,true,1,1,18,0,0.7253883443788717,0.2790837971731983,0.6982800930437136,0.3574903338697861,1,28,278,true,TRUE,j
daw_two_step,29,47,748680,74,1,2,stage1_stim_1.png,stage1_stim_2.png,664,1,2,1,pink,pink_stim_2.png,pink_stim_1.png,1182,1,false,1,1,18,0,0.7337054793439532,0.3121873793668439,0.6978676421293203,0.29772023251284724,1,29,278,true,TRUE,j
daw_two_step,30,48,753591,70,1,2,stage1_stim_1.png,stage1_stim_2.png,762,1,1,2,blue,blue_stim_1.png,blue_stim_2.png,1271,1,true,2,0,19,0,0.7116534921383348,0.33166116688897473,0.65747923707546,0.33922846970858445,1,30,278,false,TRUE,f
daw_two_step,31,49,759047,70,1,2,stage1_stim_1.png,stage1_stim_2.png,791,1,2,1,pink,pink_stim_2.png,pink_stim_1.png,1222,2,false,1,1,19,0,0.7049224565075839,0.33013303766810986,0.6668255884006765,0.3482758518443504,1,31,278,true,TRUE,f
daw_two_step,32,50,763963,70,2,1,stage1_stim_2.png,stage1_stim_1.png,855,1,2,1,pink,pink_stim_2.png,pink_stim_1.png,1182,2,false,1,1,19,0,0.6947442617171985,0.3287997119148218,0.6864546014714851,0.30908780787779633,1,32,278,false,TRUE,f
daw_two_step,0,52,814365,74,2,1,stage1_stim_2.png,stage1_stim_1.png,1147,1,1,2,pink,pink_stim_1.png,pink_stim_2.png,1721,2,false,1,1,19,0,0.6947442617171985,0.3287997119148218,0.6864546014714851,0.30908780787779633,2,33,278,NA,NA,j
daw_two_step,1,53,818974,74,1,2,stage1_stim_1.png,stage1_stim_2.png,930,1,1,2,pink,pink_stim_1.png,pink_stim_2.png,969,2,true,1,1,20,0,0.7330377684226141,0.28961166794826776,0.6469140950010379,0.28654672021480077,2,34,278,false,TRUE,j
daw_two_step,2,54,824453,70,1,2,stage1_stim_1.png,stage1_stim_2.png,952,1,1,2,blue,blue_stim_1.png,blue_stim_2.png,997,1,true,2,0,21,0,0.7227319933415682,0.2975859473099191,0.6278535103388728,0.3416397112795939,2,35,278,true,TRUE,f
daw_two_step,3,55,830060,74,1,2,stage1_stim_1.png,stage1_stim_2.png,840,1,2,1,pink,pink_stim_2.png,pink_stim_1.png,1564,1,true,1,1,22,0,0.7347344054287163,0.2997241471518064,0.6338019958619313,0.33552052381698017,2,36,278,true,TRUE,j
daw_two_step,4,56,835842,74,2,1,stage1_stim_2.png,stage1_stim_1.png,724,1,1,2,pink,pink_stim_1.png,pink_stim_2.png,1650,2,true,1,1,23,0,0.7431560095951891,0.2965589018812363,0.6058612414254673,0.30245834400185984,2,37,278,true,TRUE,j
daw_two_step,5,57,841546,70,1,2,stage1_stim_1.png,stage1_stim_2.png,853,1,2,1,pink,pink_stim_2.png,pink_stim_1.png,1517,2,true,1,1,24,0,0.7443599454208385,0.31951457715550147,0.6347654851172616,0.31627212500934404,2,38,278,true,TRUE,f
daw_two_step,6,58,846554,74,2,1,stage1_stim_2.png,stage1_stim_1.png,1071,1,2,1,blue,blue_stim_2.png,blue_stim_1.png,1323,1,true,2,0,25,0,0.7262181967845884,0.30461814804165815,0.6652452678519831,0.3168926651594023,2,39,278,true,TRUE,j
daw_two_step,7,59,852006,74,1,2,stage1_stim_1.png,stage1_stim_2.png,833,1,1,2,pink,pink_stim_1.png,pink_stim_2.png,1349,2,false,1,1,25,0,0.7434985699862345,0.2509763856134082,0.6776828625408313,0.30296879997936627,2,40,278,true,TRUE,j
daw_two_step,8,60,857502,70,1,2,stage1_stim_1.png,stage1_stim_2.png,679,1,2,1,pink,pink_stim_2.png,pink_stim_1.png,1553,2,true,1,1,26,0,0.7202975366307278,0.26437272823560864,0.6755003047040027,0.2554760949809992,2,41,278,false,TRUE,f
daw_two_step,9,61,862318,70,1,2,stage1_stim_1.png,stage1_stim_2.png,697,1,2,1,pink,pink_stim_2.png,pink_stim_1.png,1302,2,true,1,1,27,0,0.7381365681707458,0.26936720384378926,0.6267388100565054,0.2595306680716465,2,42,278,true,TRUE,f
daw_two_step,10,62,867470,74,1,2,stage1_stim_1.png,stage1_stim_2.png,737,1,2,1,pink,pink_stim_2.png,pink_stim_1.png,1239,1,true,1,1,28,0,0.7238803506135472,0.28254838880190053,0.6560256559338301,0.27195432726521496,2,43,278,true,TRUE,j
daw_two_step,11,63,872283,74,1,2,stage1_stim_1.png,stage1_stim_2.png,718,1,2,1,blue,blue_stim_2.png,blue_stim_1.png,1028,1,true,2,0,29,0,0.7394987045530999,0.31983130728040293,0.6431804635756306,0.2868051329057813,2,44,278,true,TRUE,j
daw_two_step,12,64,877470,74,2,1,stage1_stim_2.png,stage1_stim_1.png,849,1,1,2,pink,pink_stim_1.png,pink_stim_2.png,1189,2,false,1,1,29,0,0.7240847304674259,0.28756266058282315,0.6185198700993878,0.25761756549758663,2,45,278,true,TRUE,j
daw_two_step,13,65,883137,70,1,2,stage1_stim_1.png,stage1_stim_2.png,750,1,1,2,pink,pink_stim_1.png,pink_stim_2.png,1515,1,true,1,1,30,0,0.7073139401301075,0.2586708932128982,0.6312323334374028,0.29497452247019057,2,46,278,false,TRUE,f
daw_two_step,14,66,888731,74,1,2,stage1_stim_1.png,stage1_stim_2.png,801,1,2,1,pink,pink_stim_2.png,pink_stim_1.png,1549,1,true,1,1,31,0,0.6536721777018575,0.25814106059673925,0.6403487146589328,0.3717447397210465,2,47,278,true,TRUE,j
daw_two_step,15,67,893038,74,1,2,stage1_stim_1.png,stage1_stim_2.png,613,1,2,1,blue,blue_stim_2.png,blue_stim_1.png,735,1,true,2,0,32,0,0.661812414602816,0.2777700736675478,0.6668151236815265,0.36590623044114273,2,48,278,true,TRUE,j
daw_two_step,16,68,897081,70,2,1,stage1_stim_2.png,stage1_stim_1.png,747,1,1,2,blue,blue_stim_1.png,blue_stim_2.png,578,1,true,2,0,33,0,0.6751683355968405,0.2871508197095956,0.6643772188842405,0.34259313108646783,2,49,278,true,TRUE,f
daw_two_step,17,69,902718,70,2,1,stage1_stim_2.png,stage1_stim_1.png,646,1,2,1,pink,pink_stim_2.png,pink_stim_1.png,1503,2,false,1,1,33,0,0.6889821166043247,0.2610459400520321,0.6727988230507134,0.3517460956233208,2,50,278,true,TRUE,f
daw_two_step,18,70,907223,70,2,1,stage1_stim_2.png,stage1_stim_1.png,526,1,2,1,pink,pink_stim_2.png,pink_stim_1.png,1098,2,true,1,1,34,0,0.679775029334614,0.29787086760746084,0.6191570606224635,0.3547591766497853,2,51,278,false,TRUE,f
daw_two_step,19,71,911946,74,1,2,stage1_stim_1.png,stage1_stim_2.png,930,1,1,2,pink,pink_stim_1.png,pink_stim_2.png,895,2,false,1,1,34,0,0.7121396332631935,0.33597747695627284,0.6350371488971539,0.33583606725290943,2,52,278,true,TRUE,j
daw_two_step,20,72,916593,70,1,2,stage1_stim_1.png,stage1_stim_2.png,598,1,1,2,blue,blue_stim_1.png,blue_stim_2.png,1184,1,false,2,0,34,0,0.6983613703285372,0.3302977465108535,0.6313411143537947,0.3322525374953158,2,53,278,false,TRUE,f
daw_two_step,21,73,921391,74,1,2,stage1_stim_1.png,stage1_stim_2.png,651,1,2,1,pink,pink_stim_2.png,pink_stim_1.png,856,1,true,1,1,35,0,0.7205604103603002,0.3385519814967124,0.6528409540973142,0.3182264009684932,2,54,278,false,TRUE,j
daw_two_step,22,74,926012,74,2,1,stage1_stim_2.png,stage1_stim_1.png,709,1,1,2,pink,pink_stim_1.png,pink_stim_2.png,1158,2,false,1,1,35,0,0.749133667817635,0.3067457406488495,0.6682705051405354,0.2995366380272342,2,55,278,true,TRUE,j
daw_two_step,23,75,929874,70,2,1,stage1_stim_2.png,stage1_stim_1.png,404,1,2,1,pink,pink_stim_2.png,pink_stim_1.png,713,2,false,1,1,35,0,0.7268187263894458,0.3360198325159579,0.687899518211344,0.2716374411995993,2,56,278,false,TRUE,f
daw_two_step,24,76,934993,70,2,1,stage1_stim_2.png,stage1_stim_1.png,511,1,2,1,pink,pink_stim_2.png,pink_stim_1.png,1152,2,true,1,1,36,0,0.6950124855415829,0.35357248366029165,0.67969772675491,0.2638725238154147,2,57,278,false,TRUE,f
daw_two_step,25,77,939677,74,2,1,stage1_stim_2.png,stage1_stim_1.png,588,1,2,1,blue,blue_stim_2.png,blue_stim_1.png,824,1,false,2,0,36,0,0.6965272355097357,0.3171661835994648,0.6838897558167303,0.2819829028994088,2,58,278,true,TRUE,j
daw_two_step,26,78,944300,70,2,1,stage1_stim_2.png,stage1_stim_1.png,567,1,1,2,blue,blue_stim_1.png,blue_stim_2.png,698,1,true,2,0,37,0,0.6998166939991708,0.3020398571577952,0.700295265023729,0.32288841548322716,2,59,278,false,TRUE,f
daw_two_step,27,79,949046,74,1,2,stage1_stim_1.png,stage1_stim_2.png,936,1,2,1,pink,pink_stim_2.png,pink_stim_1.png,936,1,false,1,1,37,0,0.6933519070792165,0.2676340988978049,0.680523644992684,0.383827406352396,2,60,278,true,TRUE,j
daw_two_step,28,80,954196,74,2,1,stage1_stim_2.png,stage1_stim_1.png,609,1,1,2,pink,pink_stim_1.png,pink_stim_2.png,1052,2,false,1,1,37,0,0.7044544601499556,0.2508221450881674,0.6549779365129429,0.4098298387395774,2,61,278,false,TRUE,j
daw_two_step,29,81,958672,70,1,2,stage1_stim_1.png,stage1_stim_2.png,652,1,1,2,pink,pink_stim_1.png,pink_stim_2.png,819,1,true,1,1,38,0,0.7266243689196656,0.2715513481541186,0.660024871966474,0.41778429877459333,2,62,278,false,TRUE,f
daw_two_step,30,82,963819,74,2,1,stage1_stim_2.png,stage1_stim_1.png,604,1,2,1,pink,pink_stim_2.png,pink_stim_1.png,1253,1,true,1,1,39,0,0.7080045382457679,0.2851861360212681,0.6554175452184803,0.3886187618611493,2,63,278,true,TRUE,j
daw_two_step,31,83,968722,74,1,2,stage1_stim_1.png,stage1_stim_2.png,612,1,2,1,pink,pink_stim_2.png,pink_stim_1.png,944,1,true,1,1,40,0,0.7416939105389624,0.2629630117342925,0.6565111706235763,0.3920482474081735,2,64,278,true,TRUE,j
daw_two_step,32,84,973475,74,1,2,stage1_stim_1.png,stage1_stim_2.png,718,1,2,1,blue,blue_stim_2.png,blue_stim_1.png,979,1,true,2,0,41,0,0.7201994801122256,0.2512663883252572,0.6698284150050863,0.42058667899452545,2,65,278,true,TRUE,j
daw_two_step,0,86,1009477,74,2,1,stage1_stim_2.png,stage1_stim_1.png,910,1,1,2,pink,pink_stim_1.png,pink_stim_2.png,1403,2,false,1,1,41,0,0.7201994801122256,0.2512663883252572,0.6698284150050863,0.42058667899452545,3,66,278,NA,NA,j
daw_two_step,1,87,1013669,74,2,1,stage1_stim_2.png,stage1_stim_1.png,729,1,2,1,blue,blue_stim_2.png,blue_stim_1.png,838,1,false,2,0,41,0,0.7109923928425148,0.27578356088320516,0.6277036722085444,0.4471299823854443,3,67,278,false,TRUE,j
daw_two_step,2,88,1018880,74,1,2,stage1_stim_1.png,stage1_stim_2.png,880,1,2,1,pink,pink_stim_2.png,pink_stim_1.png,864,1,true,1,1,42,0,0.7046824712752201,0.2820400128089306,0.6360125809065829,0.4616399857536001,3,68,278,false,TRUE,j
daw_two_step,3,89,1023636,74,1,2,stage1_stim_1.png,stage1_stim_2.png,598,1,2,1,blue,blue_stim_2.png,blue_stim_1.png,1054,1,false,2,0,42,0,0.6894481822564327,0.32294552539274896,0.5961750838470705,0.4686953065697673,3,69,278,true,TRUE,j
daw_two_step,4,90,1027815,70,2,1,stage1_stim_2.png,stage1_stim_1.png,684,1,2,1,blue,blue_stim_2.png,blue_stim_1.png,463,2,false,2,0,42,0,0.7271114743668194,0.34625625143700683,0.6008228967080079,0.4692023377641414,3,70,278,false,TRUE,f
daw_two_step,5,91,1032024,74,1,2,stage1_stim_1.png,stage1_stim_2.png,664,1,2,1,pink,pink_stim_2.png,pink_stim_1.png,863,1,false,1,1,42,0,0.7428026507995518,0.30425306453971346,0.6020174329027145,0.4512525681843373,3,71,278,false,TRUE,j
daw_two_step,6,92,1036747,74,2,1,stage1_stim_2.png,stage1_stim_1.png,712,1,2,1,blue,blue_stim_2.png,blue_stim_1.png,1337,1,true,2,0,43,0,0.7262925281915544,0.28331265354644974,0.6050124585845479,0.4604864193334832,3,72,278,false,TRUE,j
daw_two_step,7,93,1041419,74,2,1,stage1_stim_2.png,stage1_stim_1.png,946,1,2,1,blue,blue_stim_2.png,blue_stim_1.png,850,1,true,2,0,44,0,0.6871044842250004,0.28545085338833703,0.6385397293703811,0.4625597819045624,3,73,278,true,TRUE,j
daw_two_step,8,94,1046306,74,1,2,stage1_stim_1.png,stage1_stim_2.png,899,1,1,2,pink,pink_stim_1.png,pink_stim_2.png,1297,2,false,1,1,44,0,0.6834084496816412,0.31341216256449717,0.6092659534197927,0.4246466014726442,3,74,278,true,TRUE,j
daw_two_step,9,95,1052295,74,2,1,stage1_stim_2.png,stage1_stim_1.png,837,1,1,2,pink,pink_stim_1.png,pink_stim_2.png,1742,2,true,1,1,45,0,0.6922519397802291,0.3093808982145031,0.563364563518821,0.4410974573891885,3,75,278,false,TRUE,j
daw_two_step,10,96,1057639,74,1,2,stage1_stim_1.png,stage1_stim_2.png,1020,1,1,2,blue,blue_stim_1.png,blue_stim_2.png,1248,2,true,2,0,46,0,0.693095026635147,0.3159348790245904,0.601471172867633,0.41638821943528376,3,76,278,true,TRUE,j
daw_two_step,11,97,1062733,74,2,1,stage1_stim_2.png,stage1_stim_1.png,981,1,2,1,pink,pink_stim_2.png,pink_stim_1.png,1399,1,false,1,1,46,0,0.6955293559277679,0.36505577499164943,0.5527096782201357,0.4210167023433912,3,77,278,true,TRUE,j
daw_two_step,12,98,1067121,74,1,2,stage1_stim_1.png,stage1_stim_2.png,740,1,2,1,pink,pink_stim_2.png,pink_stim_1.png,899,1,true,1,1,47,0,0.6831136436867534,0.3623498673449073,0.5539501310808895,0.4364486071517676,3,78,278,false,TRUE,j
daw_two_step,13,99,1072599,74,2,1,stage1_stim_2.png,stage1_stim_1.png,701,1,2,1,pink,pink_stim_2.png,pink_stim_1.png,1309,1,true,1,1,48,0,0.6802307214180114,0.33467999082064076,0.5588113189545165,0.3792082590862818,3,79,278,true,TRUE,j
daw_two_step,14,100,1077058,74,1,2,stage1_stim_1.png,stage1_stim_2.png,692,1,2,1,blue,blue_stim_2.png,blue_stim_1.png,944,1,true,2,0,49,0,0.6400969708076836,0.34810059566228413,0.527800011324948,0.32925612146737565,3,80,278,true,TRUE,j
daw_two_step,15,101,1082076,74,1,2,stage1_stim_1.png,stage1_stim_2.png,702,1,2,1,blue,blue_stim_2.png,blue_stim_1.png,862,1,false,2,0,49,0,0.6374371668842455,0.3404044445711016,0.5273875604105547,0.31830566058763976,3,81,278,true,TRUE,j
daw_two_step,16,102,1086485,70,2,1,stage1_stim_2.png,stage1_stim_1.png,754,1,1,2,blue,blue_stim_1.png,blue_stim_2.png,988,1,true,2,0,50,0,0.6788509246617428,0.3186323444890994,0.5370934770570948,0.32326330198726155,3,82,278,false,TRUE,f
daw_two_step,17,103,1090657,74,2,1,stage1_stim_2.png,stage1_stim_1.png,606,1,2,1,pink,pink_stim_2.png,pink_stim_1.png,992,1,false,1,1,50,0,0.6317726559996222,0.3336597916517195,0.5498059403951098,0.262106854525232,3,83,278,true,TRUE,j
daw_two_step,18,104,1095003,70,2,1,stage1_stim_2.png,stage1_stim_1.png,546,1,1,2,pink,pink_stim_1.png,pink_stim_2.png,710,1,false,1,1,50,0,0.6172484717236372,0.3309999877282814,0.5834953126883042,0.25978587505908596,3,84,278,false,TRUE,f
daw_two_step,19,105,1099070,74,2,1,stage1_stim_2.png,stage1_stim_1.png,548,1,1,2,pink,pink_stim_1.png,pink_stim_2.png,765,2,false,1,1,50,0,0.575080390108412,0.3350858436280141,0.5666833588786668,0.3006913876429043,3,85,278,false,TRUE,j
daw_two_step,20,106,1103985,74,2,1,stage1_stim_2.png,stage1_stim_1.png,725,1,2,1,pink,pink_stim_2.png,pink_stim_1.png,811,1,true,1,1,51,0,0.5782657013987121,0.2843492873984866,0.5792751066314556,0.29422660072295,3,86,278,false,TRUE,j
daw_two_step,21,107,1108827,70,1,2,stage1_stim_1.png,stage1_stim_2.png,684,1,2,1,pink,pink_stim_2.png,pink_stim_1.png,1022,2,false,1,1,51,0,0.6090340303543711,0.2782483769042009,0.588024343663069,0.32733018291659555,3,87,278,true,TRUE,f
daw_two_step,22,108,1113322,74,1,2,stage1_stim_1.png,stage1_stim_2.png,616,1,1,2,pink,pink_stim_1.png,pink_stim_2.png,606,2,false,1,1,51,0,0.5638137804752109,0.28620283693921683,0.5716275258074555,0.29526145341260457,3,88,278,false,TRUE,j
daw_two_step,23,109,1118110,70,2,1,stage1_stim_2.png,stage1_stim_1.png,583,1,2,1,pink,pink_stim_2.png,pink_stim_1.png,766,2,true,1,1,52,0,0.5611539765517728,0.2856764885191269,0.5517853069391685,0.308896241279754,3,89,278,false,TRUE,f
daw_two_step,24,110,1122980,70,2,1,stage1_stim_2.png,stage1_stim_1.png,613,1,1,2,blue,blue_stim_1.png,blue_stim_2.png,748,1,true,2,0,53,0,0.5584547216720435,0.28166044552220654,0.5552147924861928,0.33743467286610596,3,90,278,true,TRUE,f
daw_two_step,25,111,1127964,70,1,2,stage1_stim_1.png,stage1_stim_2.png,569,1,1,2,blue,blue_stim_1.png,blue_stim_2.png,869,1,false,2,0,53,0,0.5584310803885708,0.2668881955006127,0.5186322158474245,0.3148935852031104,3,91,278,true,TRUE,f
daw_two_step,26,112,1132840,70,2,1,stage1_stim_2.png,stage1_stim_1.png,554,1,1,2,pink,pink_stim_1.png,pink_stim_2.png,952,1,true,1,1,54,0,0.5525925711086671,0.2805456714256472,0.5142057705777421,0.2814266502658018,3,92,278,false,TRUE,f
daw_two_step,27,113,1136850,70,2,1,stage1_stim_2.png,stage1_stim_1.png,557,1,1,2,pink,pink_stim_1.png,pink_stim_2.png,719,1,true,1,1,55,0,0.5865540207038863,0.28742714458779056,0.4634692143482146,0.2629691077210021,3,93,278,true,TRUE,f
daw_two_step,28,114,1141534,74,1,2,stage1_stim_1.png,stage1_stim_2.png,733,1,2,1,blue,blue_stim_2.png,blue_stim_1.png,609,1,true,2,0,56,0,0.5919188850252434,0.27969866737810695,0.42857201976375336,0.26493008910663274,3,94,278,true,TRUE,j
daw_two_step,29,115,1145629,70,1,2,stage1_stim_1.png,stage1_stim_2.png,530,1,2,1,pink,pink_stim_2.png,pink_stim_1.png,1005,2,false,1,1,56,0,0.5307624375632138,0.26952047258772155,0.47516868604676127,0.2506738715494341,3,95,278,true,TRUE,f
daw_two_step,30,116,1150074,74,1,2,stage1_stim_1.png,stage1_stim_2.png,546,1,2,1,pink,pink_stim_2.png,pink_stim_1.png,501,1,true,1,1,57,0,0.5675873651186426,0.28771529650624034,0.4606970300807013,0.2502326325201094,3,96,278,false,TRUE,j
daw_two_step,31,117,1154385,70,1,2,stage1_stim_1.png,stage1_stim_2.png,503,1,1,2,blue,blue_stim_1.png,blue_stim_2.png,685,1,false,2,0,57,0,0.5680943963130166,0.28921221171989026,0.4374688064800975,0.2520981974216303,3,97,278,true,TRUE,f
daw_two_step,32,118,1158876,74,2,1,stage1_stim_2.png,stage1_stim_1.png,699,1,2,1,blue,blue_stim_2.png,blue_stim_1.png,745,1,false,2,0,57,0,0.5015449748942424,0.2992615387074008,0.4095228620184883,0.2655188022632737,3,98,278,false,TRUE,j
daw_two_step,0,18,973093,70,2,1,stage1_stim_2.png,stage1_stim_1.png,406,1,1,2,pink,pink_stim_1.png,pink_stim_2.png,806,1,true,1,1,1,0,0.25,0.75,0.4,0.6,1,0,625,NA,NA,f
daw_two_step,1,19,977594,70,1,2,stage1_stim_1.png,stage1_stim_2.png,677,1,1,2,pink,pink_stim_1.png,pink_stim_2.png,1129,1,false,1,1,1,0,0.2640080250506462,0.7343984712108623,0.40505201865003976,0.6109985657812095,1,1,625,true,TRUE,f
daw_two_step,2,20,982184,74,1,2,stage1_stim_1.png,stage1_stim_2.png,556,1,2,1,pink,pink_stim_2.png,pink_stim_1.png,781,1,false,1,1,1,0,0.28673650201755124,0.6909719717010063,0.4437338297042158,0.6093749677856178,1,2,625,false,TRUE,j
daw_two_step,3,21,986317,74,2,1,stage1_stim_2.png,stage1_stim_1.png,626,1,1,2,pink,pink_stim_1.png,pink_stim_2.png,786,2,true,1,1,2,0,0.2719313734649355,0.7477513014158143,0.46724666269558296,0.6108755151667967,1,3,625,false,TRUE,j
daw_two_step,4,22,990913,70,1,2,stage1_stim_1.png,stage1_stim_2.png,657,1,2,1,blue,blue_stim_2.png,blue_stim_1.png,988,2,false,2,0,2,0,0.28169152582665413,0.749931184738257,0.48746939871894934,0.5673359425849022,1,4,625,true,TRUE,f
daw_two_step,5,23,995159,74,2,1,stage1_stim_2.png,stage1_stim_1.png,624,1,2,1,blue,blue_stim_2.png,blue_stim_1.png,1085,1,true,2,0,3,0,0.26190885699167366,0.7130592756568221,0.477663794806298,0.5798803621482843,1,5,625,false,TRUE,j
daw_two_step,6,24,1000097,74,2,1,stage1_stim_2.png,stage1_stim_1.png,671,1,1,2,pink,pink_stim_1.png,pink_stim_2.png,1123,2,false,1,1,3,0,0.2594794215058786,0.7235269369599048,0.453672510580829,0.6174272078863937,1,6,625,true,TRUE,j
daw_two_step,7,25,1004613,70,1,2,stage1_stim_1.png,stage1_stim_2.png,490,1,1,2,pink,pink_stim_1.png,pink_stim_2.png,920,1,false,1,1,3,0,0.26960513281564996,0.7010286787211497,0.44884377548844107,0.59483748844139706,1,7,625,false,TRUE,f
daw_two_step,8,26,1009891,74,2,1,stage1_stim_2.png,stage1_stim_1.png,608,1,1,2,pink,pink_stim_1.png,pink_stim_2.png,1238,2,false,1,1,3,0,0.2566423229775634,0.6612706204900611,0.42314154092598816,0.5690898044017281,1,8,625,false,TRUE,j
daw_two_step,9,27,1014184,70,1,2,stage1_stim_1.png,stage1_stim_2.png,739,1,1,2,blue,blue_stim_1.png,blue_stim_2.png,867,1,true,2,0,4,0,0.25506123761517446,0.7072559883136214,0.4446205034814064,0.5229967444400017,1,9,625,false,TRUE,f
daw_two_step,10,28,1018280,70,1,2,stage1_stim_1.png,stage1_stim_2.png,669,1,2,1,pink,pink_stim_2.png,pink_stim_1.png,808,2,true,1,1,5,0,0.2810193435964314,0.6977460873265171,0.4591985212812219,0.5014898227213767,1,10,625,true,TRUE,f
daw_two_step,11,29,1022440,74,1,2,stage1_stim_1.png,stage1_stim_2.png,520,1,2,1,blue,blue_stim_2.png,blue_stim_1.png,695,1,false,2,0,5,0,0.25951242187780643,0.690327196349527,0.432947596723912,0.474277705785813,1,11,625,true,TRUE,j
daw_two_step,12,30,1026304,74,1,2,stage1_stim_1.png,stage1_stim_2.png,547,1,1,2,blue,blue_stim_1.png,blue_stim_2.png,728,2,false,2,0,5,0,0.2793751088168389,0.7021953333594005,0.4482204608024707,0.48650311197803586,1,12,625,false,TRUE,j
daw_two_step,13,31,1030528,70,2,1,stage1_stim_2.png,stage1_stim_1.png,478,1,2,1,blue,blue_stim_2.png,blue_stim_1.png,718,2,true,2,0,6,0,0.2629093130130455,0.7078846590697914,0.406318025439244,0.4925942733484303,1,13,625,false,TRUE,f
daw_two_step,14,32,1035374,74,2,1,stage1_stim_2.png,stage1_stim_1.png,521,1,1,2,pink,pink_stim_1.png,pink_stim_2.png,797,2,true,1,1,7,0,0.3079952750420263,0.7015476801660059,0.3977532212122582,0.4933860428643478,1,14,625,true,TRUE,j
daw_two_step,15,33,1039422,70,2,1,stage1_stim_2.png,stage1_stim_1.png,556,1,2,1,pink,pink_stim_2.png,pink_stim_1.png,803,2,true,1,1,8,0,0.2769965035647847,0.7353034154441777,0.35611119129916946,0.4935645546858469,1,15,625,true,TRUE,f
daw_two_step,16,34,1043873,70,1,2,stage1_stim_1.png,stage1_stim_2.png,646,1,1,2,blue,blue_stim_1.png,blue_stim_2.png,875,1,false,2,0,8,0,0.25235742926905036,0.7406510130862504,0.3066379185361116,0.5125411103902969,1,16,625,true,TRUE,f
daw_two_step,17,35,1048760,70,1,2,stage1_stim_1.png,stage1_stim_2.png,478,1,2,1,pink,pink_stim_2.png,pink_stim_1.png,1144,2,true,1,1,9,0,0.26508891941845014,0.7388491978107092,0.29659152213801476,0.5229061478628708,1,17,625,false,TRUE,f
daw_two_step,18,36,1053304,74,1,2,stage1_stim_1.png,stage1_stim_2.png,588,1,2,1,pink,pink_stim_2.png,pink_stim_1.png,952,1,true,1,1,10,0,0.2611585363747633,0.7436810754729704,0.28199244569976284,0.48955916846026715,1,18,625,true,TRUE,j
daw_two_step,19,37,1057367,70,2,1,stage1_stim_2.png,stage1_stim_1.png,505,1,1,2,blue,blue_stim_1.png,blue_stim_2.png,942,1,false,2,0,10,0,0.2521523695597351,0.7216068526344238,0.2982572441048666,0.4781443266120553,1,19,625,true,TRUE,f
daw_two_step,20,38,1061554,74,1,2,stage1_stim_1.png,stage1_stim_2.png,481,1,2,1,pink,pink_stim_2.png,pink_stim_1.png,848,1,false,1,1,10,0,0.2541076611010958,0.7377274261556328,0.3002131421200365,0.4661804291569627,1,20,625,false,TRUE,j
daw_two_step,21,39,1065974,74,2,1,stage1_stim_2.png,stage1_stim_1.png,691,1,1,2,pink,pink_stim_1.png,pink_stim_2.png,707,2,true,1,1,11,0,0.2600297653763489,0.7285169168970484,0.3158345225795268,0.4718697548673535,1,21,625,false,TRUE,j
daw_two_step,22,40,1070357,74,2,1,stage1_stim_2.png,stage1_stim_1.png,716,2,1,2,pink,pink_stim_1.png,pink_stim_2.png,704,2,true,1,0,12,0,0.25520103028396096,0.688483103287415,0.2943630388343811,0.47152998151820186,1,22,625,true,FALSE,j
daw_two_step,23,41,1075115,70,2,1,stage1_stim_2.png,stage1_stim_1.png,531,1,2,1,blue,blue_stim_2.png,blue_stim_1.png,689,2,true,2,0,13,0,0.2788142447012742,0.6657401763613169,0.2917369645426556,0.4587481687117116,1,23,625,true,FALSE,f
daw_two_step,24,42,1079933,70,1,2,stage1_stim_1.png,stage1_stim_2.png,491,1,1,2,pink,pink_stim_1.png,pink_stim_2.png,847,1,false,1,1,13,0,0.2621415510403284,0.6373436457169488,0.2748797726423297,0.4803263945075794,1,24,625,true,TRUE,f
daw_two_step,25,43,1084023,74,2,1,stage1_stim_2.png,stage1_stim_1.png,698,2,1,2,blue,blue_stim_1.png,blue_stim_2.png,739,2,false,2,1,13,0,0.2738709478757109,0.6724677968500421,0.27417061921738756,0.4802014474315317,1,25,625,false,FALSE,j
daw_two_step,26,44,1088452,70,1,2,stage1_stim_1.png,stage1_stim_2.png,455,2,2,1,pink,pink_stim_2.png,pink_stim_1.png,644,2,true,1,0,14,0,0.27448482963842497,0.6911188234876465,0.2989497958207965,0.5260256816146727,1,26,625,false,TRUE,f
daw_two_step,27,45,1092285,74,2,1,stage1_stim_2.png,stage1_stim_1.png,507,1,1,2,pink,pink_stim_1.png,pink_stim_2.png,768,2,true,1,1,15,0,0.26603688632780637,0.6794949224924713,0.3232589544541891,0.5207790197678535,1,27,625,true,FALSE,j
daw_two_step,28,46,1096606,70,2,1,stage1_stim_2.png,stage1_stim_1.png,718,2,1,2,blue,blue_stim_1.png,blue_stim_2.png,716,1,false,2,1,15,0,0.27209850464550023,0.684546941142511,0.32503319319674967,0.4952361160423271,1,28,625,true,FALSE,f
daw_two_step,29,47,1101319,70,1,2,stage1_stim_1.png,stage1_stim_2.png,501,2,2,1,blue,blue_stim_2.png,blue_stim_1.png,757,2,false,2,1,15,0,0.2859432811379175,0.6655911284903283,0.37974514860844866,0.4736867842647964,1,29,625,false,TRUE,f
daw_two_step,30,48,1105372,74,1,2,stage1_stim_1.png,stage1_stim_2.png,432,1,1,2,pink,pink_stim_1.png,pink_stim_2.png,628,2,true,1,1,16,0,0.30945611412928464,0.6389643830290255,0.4041611512885439,0.4905820018178087,1,30,625,false,FALSE,j
daw_two_step,31,49,1109337,70,2,1,stage1_stim_2.png,stage1_stim_1.png,529,1,1,2,pink,pink_stim_1.png,pink_stim_2.png,816,1,true,1,1,17,0,0.2696389095868535,0.6144865877954043,0.39751186530356974,0.4596424289313229,1,31,625,true,TRUE,f
daw_two_step,32,50,1113879,74,1,2,stage1_stim_1.png,stage1_stim_2.png,614,1,2,1,blue,blue_stim_2.png,blue_stim_1.png,835,1,false,2,0,17,0,0.2959708050643392,0.6263796831640119,0.3874654689054729,0.5317567599485663,1,32,625,true,TRUE,j
daw_two_step,0,52,1121890,74,1,2,stage1_stim_1.png,stage1_stim_2.png,628,1,1,2,pink,pink_stim_1.png,pink_stim_2.png,699,2,false,1,1,17,0,0.2959708050643392,0.6263796831640119,0.3874654689054729,0.5317567599485663,2,33,625,NA,NA,j
daw_two_step,1,53,1126526,74,2,1,stage1_stim_2.png,stage1_stim_1.png,568,1,1,2,blue,blue_stim_1.png,blue_stim_2.png,923,2,true,2,0,18,0,0.26063941514139694,0.615174247353033,0.3398889441638859,0.54783020054268,2,34,625,false,TRUE,j
daw_two_step,2,54,1130878,70,1,2,stage1_stim_1.png,stage1_stim_2.png,561,1,1,2,pink,pink_stim_1.png,pink_stim_2.png,1007,1,false,1,1,18,0,0.2556252373235816,0.5978703212802794,0.3765063334567847,0.5337728656544867,2,35,625,true,TRUE,f
daw_two_step,3,55,1135444,70,2,1,stage1_stim_2.png,stage1_stim_1.png,492,1,2,1,pink,pink_stim_2.png,pink_stim_1.png,784,2,true,1,1,19,0,0.264069328136288,0.5796210796068034,0.3852456252974861,0.5966889098205694,2,36,625,false,TRUE,f
daw_two_step,4,56,1140467,70,1,2,stage1_stim_1.png,stage1_stim_2.png,514,1,2,1,blue,blue_stim_2.png,blue_stim_1.png,1013,2,false,2,0,19,0,0.31313045396695705,0.5913739254089737,0.3826958600724628,0.5254823113142877,2,37,625,true,TRUE,f
daw_two_step,5,57,1145471,70,2,1,stage1_stim_2.png,stage1_stim_1.png,609,1,1,2,pink,pink_stim_1.png,pink_stim_2.png,1296,1,false,1,1,19,0,0.2725399034629886,0.5714470259754908,0.39571692116530816,0.4793892513525613,2,38,625,false,TRUE,f
daw_two_step,6,58,1149769,74,2,1,stage1_stim_2.png,stage1_stim_1.png,505,1,1,2,pink,pink_stim_1.png,pink_stim_2.png,610,2,false,1,1,19,0,0.25313739676313973,0.5364189746156474,0.4200025296092976,0.4536870167901084,2,39,625,false,TRUE,j
daw_two_step,7,59,1154586,74,2,1,stage1_stim_2.png,stage1_stim_1.png,408,1,2,1,pink,pink_stim_2.png,pink_stim_1.png,909,1,false,1,1,19,0,0.2658867303939977,0.519736233944823,0.4658267637924386,0.429448593555219,2,40,625,false,TRUE,j
daw_two_step,8,60,1158905,70,1,2,stage1_stim_1.png,stage1_stim_2.png,724,2,2,1,blue,blue_stim_2.png,blue_stim_1.png,644,2,false,2,1,19,0,0.2573489762226129,0.49818690216729233,0.4634780490177703,0.4308249599689192,2,41,625,false,FALSE,f
daw_two_step,9,61,1163467,70,1,2,stage1_stim_1.png,stage1_stim_2.png,541,2,2,1,pink,pink_stim_2.png,pink_stim_1.png,895,2,true,1,0,20,0,0.2543539464716708,0.4890706295087351,0.5085001578794164,0.4242284624905453,2,42,625,false,TRUE,f
daw_two_step,10,62,1167657,70,1,2,stage1_stim_1.png,stage1_stim_2.png,714,2,2,1,pink,pink_stim_2.png,pink_stim_1.png,674,2,true,1,0,21,0,0.255035797600684,0.5102429128763006,0.5533974402552014,0.43534233178297993,2,43,625,true,TRUE,f
daw_two_step,11,63,1172351,74,2,1,stage1_stim_2.png,stage1_stim_1.png,626,2,1,2,blue,blue_stim_1.png,blue_stim_2.png,883,2,true,2,1,22,0,0.2626795335775764,0.5553288749052814,0.5481587364953991,0.411133105757192,2,44,625,true,TRUE,j
daw_two_step,12,64,1176897,74,2,1,stage1_stim_2.png,stage1_stim_1.png,867,2,1,2,pink,pink_stim_1.png,pink_stim_2.png,1128,2,false,1,0,22,0,0.26691924004369905,0.5791258667772461,0.5653735846659406,0.3751955998895476,2,45,625,true,TRUE,j
daw_two_step,13,65,1181479,74,1,2,stage1_stim_1.png,stage1_stim_2.png,662,2,1,2,blue,blue_stim_1.png,blue_stim_2.png,931,2,true,2,1,23,0,0.2774081098557207,0.6142500179103394,0.5214869315174662,0.4036821307119883,2,46,625,false,TRUE,j
daw_two_step,14,66,1186382,70,2,1,stage1_stim_2.png,stage1_stim_1.png,673,2,2,1,blue,blue_stim_2.png,blue_stim_1.png,982,2,true,2,1,24,0,0.25241208526709136,0.6397427239782171,0.4959440277919398,0.38897943370162,2,47,625,true,TRUE,f
daw_two_step,15,67,1190253,70,1,2,stage1_stim_1.png,stage1_stim_2.png,599,2,2,1,blue,blue_stim_2.png,blue_stim_1.png,673,2,false,2,1,24,0,0.2583341895423445,0.60510124896265,0.48613842387928846,0.35907021357626034,2,48,625,true,TRUE,f
daw_two_step,16,68,1194679,70,2,1,stage1_stim_2.png,stage1_stim_1.png,767,1,2,1,pink,pink_stim_2.png,pink_stim_1.png,689,2,false,1,1,24,0,0.26703757771528136,0.5752810538398381,0.46967262807549504,0.3476553717280485,2,49,625,false,FALSE,f
daw_two_step,17,69,1198968,74,1,2,stage1_stim_1.png,stage1_stim_2.png,669,1,2,1,pink,pink_stim_2.png,pink_stim_1.png,674,1,false,1,1,24,0,0.26880959640260904,0.5699163904406156,0.4894007013336464,0.34609746514321726,2,50,625,false,TRUE,j
daw_two_step,18,70,1202654,74,2,1,stage1_stim_2.png,stage1_stim_1.png,679,1,1,2,pink,pink_stim_1.png,pink_stim_2.png,410,2,false,1,1,24,0,0.30486852139759457,0.5551112618879999,0.4789091044855863,0.35523550396198966,2,51,625,false,TRUE,j
daw_two_step,19,71,1206650,70,2,1,stage1_stim_2.png,stage1_stim_1.png,433,1,1,2,pink,pink_stim_1.png,pink_stim_2.png,844,1,true,1,1,25,0,0.31895959296561593,0.5454014772268216,0.49263642807623914,0.36544638804322943,2,52,625,false,TRUE,f
daw_two_step,20,72,1211378,74,2,1,stage1_stim_2.png,stage1_stim_1.png,574,1,1,2,blue,blue_stim_1.png,blue_stim_2.png,671,2,true,2,0,26,0,0.28592565202126957,0.554800213428917,0.4928871408003247,0.3638227900476378,2,53,625,true,TRUE,j
daw_two_step,21,73,1216049,74,1,2,stage1_stim_1.png,stage1_stim_2.png,882,1,2,1,pink,pink_stim_2.png,pink_stim_1.png,984,1,false,1,1,26,0,0.2563110476348659,0.533293291710292,0.5105301789322996,0.3429722692331481,2,54,625,true,TRUE,j
daw_two_step,22,74,1220961,74,2,1,stage1_stim_2.png,stage1_stim_1.png,608,1,1,2,pink,pink_stim_1.png,pink_stim_2.png,929,2,false,1,1,26,0,0.2642359071554592,0.5732145444453094,0.4811466685376171,0.33375468647303247,2,55,625,false,TRUE,j
daw_two_step,23,75,1225276,74,1,2,stage1_stim_1.png,stage1_stim_2.png,445,2,2,1,blue,blue_stim_2.png,blue_stim_1.png,614,1,true,2,1,27,0,0.2534114043503914,0.563228841394989,0.5102639739090123,0.3225259703273126,2,56,625,false,FALSE,j
daw_two_step,24,76,1229973,70,2,1,stage1_stim_2.png,stage1_stim_1.png,779,2,2,1,pink,pink_stim_2.png,pink_stim_1.png,1020,2,true,1,0,28,0,0.2507391946139331,0.5761174650768068,0.5333280056133416,0.30114400944172903,2,57,625,true,TRUE,f
daw_two_step,25,77,1234030,74,2,1,stage1_stim_2.png,stage1_stim_1.png,641,2,1,2,blue,blue_stim_1.png,blue_stim_2.png,691,2,true,2,1,29,0,0.2536941891067813,0.5959801520158393,0.5854595009291104,0.2920277367831718,2,58,625,true,TRUE,j
daw_two_step,26,78,1238686,74,2,1,stage1_stim_2.png,stage1_stim_1.png,710,2,1,2,pink,pink_stim_1.png,pink_stim_2.png,984,2,false,1,0,29,0,0.2874394805794241,0.607215606357118,0.5656768320941299,0.25093894686780777,2,59,625,true,TRUE,j
daw_two_step,27,79,1243231,74,2,1,stage1_stim_2.png,stage1_stim_1.png,520,1,1,2,pink,pink_stim_1.png,pink_stim_2.png,635,2,true,1,1,30,0,0.2710036047648408,0.5576205277790496,0.5774296778963002,0.2596960195331752,2,60,625,false,FALSE,j
daw_two_step,28,80,1247383,70,1,2,stage1_stim_1.png,stage1_stim_2.png,745,2,2,1,blue,blue_stim_2.png,blue_stim_1.png,663,2,true,2,1,31,0,0.2785914738132277,0.5780918031800506,0.5909678409488175,0.26752721737208274,2,61,625,true,FALSE,f
daw_two_step,29,81,1251641,74,1,2,stage1_stim_1.png,stage1_stim_2.png,695,1,2,1,pink,pink_stim_2.png,pink_stim_1.png,597,1,false,1,1,31,0,0.2673822950954509,0.5364497732669619,0.6145810553661307,0.2618562930225997,2,62,625,true,FALSE,j
daw_two_step,30,82,1255946,74,2,1,stage1_stim_2.png,stage1_stim_1.png,466,1,2,1,pink,pink_stim_2.png,pink_stim_1.png,947,1,true,1,1,32,0,0.29138670624984997,0.5020650619436535,0.5731899101769689,0.2679015569938963,2,63,625,false,TRUE,j
daw_two_step,31,83,1260043,74,1,2,stage1_stim_1.png,stage1_stim_2.png,629,1,1,2,pink,pink_stim_1.png,pink_stim_2.png,620,2,true,1,1,33,0,0.3337413716327486,0.49609186009011463,0.5818429050510407,0.25001426725914816,2,64,625,true,TRUE,j
daw_two_step,32,84,1264046,70,2,1,stage1_stim_2.png,stage1_stim_1.png,623,2,1,2,pink,pink_stim_1.png,pink_stim_2.png,739,1,true,1,0,34,0,0.29729168196471945,0.5223055695625624,0.6277652268707399,0.2679451872258059,2,65,625,true,FALSE,f
daw_two_step,0,86,1270374,74,1,2,stage1_stim_1.png,stage1_stim_2.png,535,2,2,1,blue,blue_stim_2.png,blue_stim_1.png,540,1,false,2,1,34,0,0.29729168196471945,0.5223055695625624,0.6277652268707399,0.2679451872258059,3,66,625,NA,NA,j
daw_two_step,1,87,1275089,70,2,1,stage1_stim_2.png,stage1_stim_1.png,480,2,1,2,pink,pink_stim_1.png,pink_stim_2.png,769,1,true,1,0,35,0,0.25122429241424793,0.47621250960083594,0.6392559270077345,0.32235076598312806,3,67,625,false,TRUE,f
daw_two_step,2,88,1279099,74,2,1,stage1_stim_2.png,stage1_stim_1.png,752,1,1,2,blue,blue_stim_1.png,blue_stim_2.png,654,2,false,2,0,35,0,0.26166727774460613,0.47957048030600447,0.6636857496093952,0.34663637442711753,3,68,625,true,FALSE,j
daw_two_step,3,89,1283330,70,1,2,stage1_stim_1.png,stage1_stim_2.png,613,2,2,1,blue,blue_stim_2.png,blue_stim_1.png,919,2,true,2,1,36,0,0.3065645601203912,0.4499558759196008,0.6491086319293076,0.3664053187612708,3,69,625,false,FALSE,f
daw_two_step,4,90,1288231,70,2,1,stage1_stim_2.png,stage1_stim_1.png,658,2,2,1,blue,blue_stim_2.png,blue_stim_1.png,909,2,true,2,1,37,0,0.33499485778778854,0.45263852946559074,0.7035142106866297,0.3729037807736069,3,70,625,true,TRUE,f
daw_two_step,5,91,1292871,74,1,2,stage1_stim_1.png,stage1_stim_2.png,645,2,1,2,pink,pink_stim_1.png,pink_stim_2.png,955,2,false,1,0,37,0,0.3118156525880612,0.45129319683995944,0.7168615421905687,0.38592484186645226,3,71,625,true,TRUE,j
daw_two_step,6,92,1297289,74,1,2,stage1_stim_1.png,stage1_stim_2.png,653,1,1,2,blue,blue_stim_1.png,blue_stim_2.png,713,2,true,2,0,38,0,0.3258236776387074,0.4261481312169967,0.7045937042767918,0.35160750204042074,3,72,625,false,FALSE,j
daw_two_step,7,93,1301883,74,2,1,stage1_stim_2.png,stage1_stim_1.png,694,2,1,2,blue,blue_stim_1.png,blue_stim_2.png,602,2,true,2,1,39,0,0.30740926738693075,0.4351726188749137,0.7152892836019554,0.3774507211178933,3,73,625,true,FALSE,j
daw_two_step,8,94,1307294,70,2,1,stage1_stim_2.png,stage1_stim_1.png,829,1,1,2,pink,pink_stim_1.png,pink_stim_2.png,1122,1,false,1,1,39,0,0.33183908998859146,0.4398797118240326,0.6613191274879645,0.4078590137129026,3,74,625,true,FALSE,f
daw_two_step,9,95,1312258,74,2,1,stage1_stim_2.png,stage1_stim_1.png,816,1,2,1,pink,pink_stim_2.png,pink_stim_1.png,639,1,false,1,1,39,0,0.3768611988502375,0.4511823888171223,0.6586128392434176,0.4327833348267856,3,75,625,false,TRUE,j
daw_two_step,10,96,1316875,70,1,2,stage1_stim_1.png,stage1_stim_2.png,1015,2,2,1,blue,blue_stim_2.png,blue_stim_1.png,792,2,true,2,1,40,0,0.38319551068872754,0.4312554893836394,0.6561834037576225,0.5035659413937399,3,76,625,false,FALSE,f
daw_two_step,11,97,1321957,74,2,1,stage1_stim_2.png,stage1_stim_1.png,781,2,2,1,pink,pink_stim_2.png,pink_stim_1.png,1057,1,false,1,0,40,0,0.3779568069289253,0.4983594476490661,0.6777469791668496,0.5017657280601547,3,77,625,true,TRUE,j
daw_two_step,12,98,1326703,70,2,1,stage1_stim_2.png,stage1_stim_1.png,598,2,2,1,blue,blue_stim_2.png,blue_stim_1.png,809,2,false,2,1,40,0,0.3704763242101466,0.46190975798103695,0.6677612761165291,0.5452139728052934,3,78,625,false,TRUE,f
daw_two_step,13,99,1330798,74,2,1,stage1_stim_2.png,stage1_stim_1.png,561,1,2,1,pink,pink_stim_2.png,pink_stim_1.png,837,1,false,1,1,40,0,0.35431018027855654,0.43623245775490854,0.6771903595264284,0.557316563282537,3,79,625,false,FALSE,j
daw_two_step,14,100,1334942,74,2,1,stage1_stim_2.png,stage1_stim_1.png,605,2,1,2,blue,blue_stim_1.png,blue_stim_2.png,615,2,true,2,1,41,0,0.33936407999400625,0.48131841978388934,0.6666339150306604,0.5534241391761573,3,80,625,false,FALSE,j
daw_two_step,15,101,1339134,74,1,2,stage1_stim_1.png,stage1_stim_2.png,660,2,1,2,blue,blue_stim_1.png,blue_stim_2.png,656,2,false,2,1,41,0,0.2944644739449914,0.4990843204054134,0.6548107826189704,0.503868592851363,3,81,625,true,TRUE,j
daw_two_step,16,102,1343410,70,1,2,stage1_stim_1.png,stage1_stim_2.png,751,1,2,1,pink,pink_stim_2.png,pink_stim_1.png,768,2,false,1,1,41,0,0.2821966360312145,0.484732854962561,0.6684396686666364,0.4900810877884782,3,82,625,false,FALSE,f
daw_two_step,17,103,1347490,70,2,1,stage1_stim_2.png,stage1_stim_1.png,455,2,2,1,pink,pink_stim_2.png,pink_stim_1.png,543,2,true,1,0,42,0,0.2548023867774274,0.5189008851713403,0.6472128870282485,0.4969860194948657,3,83,625,false,FALSE,f
daw_two_step,18,104,1352238,74,1,2,stage1_stim_1.png,stage1_stim_2.png,670,1,2,1,pink,pink_stim_2.png,pink_stim_1.png,688,1,false,1,1,42,0,0.27106718518253115,0.5058348246584582,0.6912179943444332,0.4926904586412709,3,84,625,true,FALSE,j
daw_two_step,19,105,1356755,74,2,1,stage1_stim_2.png,stage1_stim_1.png,668,1,1,2,pink,pink_stim_1.png,pink_stim_2.png,768,2,true,1,1,43,0,0.2755373603780733,0.5527949803573242,0.6616192207231578,0.5023724108775017,3,85,625,false,TRUE,j
daw_two_step,20,106,1360880,74,2,1,stage1_stim_2.png,stage1_stim_1.png,671,1,1,2,pink,pink_stim_1.png,pink_stim_2.png,735,2,true,1,1,44,0,0.2579554735650547,0.5965076744967814,0.6605205062171879,0.4909114608003789,3,86,625,true,TRUE,j
daw_two_step,21,107,1365747,74,1,2,stage1_stim_1.png,stage1_stim_2.png,625,2,1,2,blue,blue_stim_1.png,blue_stim_2.png,752,2,false,2,1,44,0,0.2613108831669831,0.5938826162797584,0.6073409250673845,0.4448440712499073,3,87,625,true,FALSE,j
daw_two_step,22,108,1370132,70,2,1,stage1_stim_2.png,stage1_stim_1.png,500,1,2,1,pink,pink_stim_2.png,pink_stim_1.png,518,2,false,1,1,44,0,0.25594621976776066,0.5639369614440227,0.6150735783982766,0.4454438828139975,3,88,625,false,FALSE,f
daw_two_step,23,109,1374487,70,1,2,stage1_stim_1.png,stage1_stim_2.png,936,2,1,2,pink,pink_stim_1.png,pink_stim_2.png,808,1,false,1,0,44,0,0.2817894388452332,0.5885449503024348,0.6097735897421706,0.4425950647476915,3,89,625,false,FALSE,f
daw_two_step,24,110,1379184,70,2,1,stage1_stim_2.png,stage1_stim_1.png,492,1,2,1,blue,blue_stim_2.png,blue_stim_1.png,746,2,false,2,0,44,0,0.2502633420175016,0.5981189039251849,0.5975231002486764,0.4501302492777105,3,90,625,false,FALSE,f
daw_two_step,25,111,1383185,70,2,1,stage1_stim_2.png,stage1_stim_1.png,539,1,1,2,blue,blue_stim_1.png,blue_stim_2.png,816,1,false,2,0,44,0,0.2846562213957003,0.6068623905409912,0.5837355951857915,0.4533987561386325,3,91,625,false,TRUE,f
daw_two_step,26,112,1387456,70,2,1,stage1_stim_2.png,stage1_stim_1.png,645,2,2,1,blue,blue_stim_2.png,blue_stim_1.png,714,2,false,2,1,44,0,0.26041404170746785,0.5992450674267092,0.5836391685455544,0.4511711473090545,3,92,625,false,FALSE,f
daw_two_step,27,113,1392188,70,1,2,stage1_stim_1.png,stage1_stim_2.png,615,2,1,2,blue,blue_stim_1.png,blue_stim_2.png,905,1,false,2,1,44,0,0.25443673783589527,0.601313198339327,0.6036915108872978,0.4773848567815022,3,93,625,false,TRUE,f
daw_two_step,28,114,1396818,74,1,2,stage1_stim_1.png,stage1_stim_2.png,764,1,1,2,blue,blue_stim_1.png,blue_stim_2.png,569,2,false,2,0,44,0,0.29953341827809565,0.5417918732974382,0.5993753054947144,0.4452615191669813,3,94,625,false,FALSE,j
daw_two_step,29,115,1401582,70,1,2,stage1_stim_1.png,stage1_stim_2.png,687,1,1,2,blue,blue_stim_1.png,blue_stim_2.png,583,1,false,2,0,44,0,0.32396324087975636,0.5525007071440601,0.6002443238305183,0.44391618654135,3,95,625,false,TRUE,f
daw_two_step,30,116,1405347,74,2,1,stage1_stim_2.png,stage1_stim_1.png,640,1,1,2,blue,blue_stim_1.png,blue_stim_2.png,527,2,false,2,0,44,0,0.30463789839930844,0.532258061787838,0.5785817412426255,0.4960476818571189,3,96,625,false,TRUE,j
daw_two_step,31,117,1409629,74,2,1,stage1_stim_2.png,stage1_stim_1.png,506,1,2,1,pink,pink_stim_2.png,pink_stim_1.png,1030,1,false,1,1,44,0,0.3131323454862177,0.5574159148927388,0.5675579089390744,0.4971350071350919,3,97,625,false,TRUE,j
daw_two_step,32,118,1413272,70,1,2,stage1_stim_1.png,stage1_stim_2.png,560,2,2,1,blue,blue_stim_2.png,blue_stim_1.png,399,2,true,2,1,45,0,0.3210353183556025,0.5651485682236309,0.5779243205628803,0.49400622225502744,3,98,625,false,FALSE,f
daw_two_step,0,18,251027,74,2,1,stage1_stim_2.png,stage1_stim_1.png,295,2,2,1,blue,blue_stim_2.png,blue_stim_1.png,541,1,true,2,1,1,0,0.25,0.75,0.6,0.4,1,0,294,NA,NA,j
daw_two_step,1,19,254910,70,1,2,stage1_stim_1.png,stage1_stim_2.png,522,2,2,1,pink,pink_stim_2.png,pink_stim_1.png,751,2,false,1,0,1,0,0.2616069513806296,0.7190369003954789,0.6072903023071158,0.3998317805014364,1,1,294,true,TRUE,f
daw_two_step,2,20,258932,70,2,1,stage1_stim_2.png,stage1_stim_1.png,457,2,2,1,blue,blue_stim_2.png,blue_stim_1.png,678,2,false,2,1,1,0,0.2789720506883388,0.7290306160239602,0.6018618450948902,0.4025731217533116,1,2,294,false,TRUE,f
daw_two_step,3,21,263683,70,2,1,stage1_stim_2.png,stage1_stim_1.png,804,1,2,1,pink,pink_stim_2.png,pink_stim_1.png,541,2,false,1,1,1,0,0.322800118551657,0.7083580183743416,0.6133039262341617,0.3931953522810674,1,3,294,false,FALSE,f
daw_two_step,4,22,268378,74,2,1,stage1_stim_2.png,stage1_stim_1.png,1017,1,1,2,pink,pink_stim_1.png,pink_stim_2.png,671,2,false,1,1,1,0,0.3325748979714596,0.7351339037157216,0.5813111616362497,0.40690692244917626,1,4,294,false,TRUE,j
daw_two_step,5,23,273126,70,2,1,stage1_stim_2.png,stage1_stim_1.png,511,2,1,2,blue,blue_stim_1.png,blue_stim_2.png,715,1,true,2,1,2,0,0.35091653669697576,0.7491581815587066,0.6040689129569888,0.4152384999591779,1,5,294,false,FALSE,f
daw_two_step,6,24,277398,74,2,1,stage1_stim_2.png,stage1_stim_1.png,499,2,1,2,pink,pink_stim_1.png,pink_stim_2.png,919,2,true,1,0,3,0,0.3518608600682675,0.7389473962267015,0.6650349440414789,0.434061191116512,1,6,294,true,TRUE,j
daw_two_step,7,25,280947,70,1,2,stage1_stim_1.png,stage1_stim_2.png,506,2,1,2,blue,blue_stim_1.png,blue_stim_2.png,405,1,true,2,1,4,0,0.3367511137225952,0.7130138233619578,0.6378723277166608,0.4225656181934885,1,7,294,true,TRUE,f
daw_two_step,8,26,284562,70,2,1,stage1_stim_2.png,stage1_stim_1.png,410,2,1,2,blue,blue_stim_1.png,blue_stim_2.png,518,1,true,2,1,5,0,0.3387453802129525,0.7133419766705708,0.643936865988258,0.38671596045515266,1,8,294,true,TRUE,f
daw_two_step,9,27,288285,74,1,2,stage1_stim_1.png,stage1_stim_2.png,418,2,2,1,blue,blue_stim_2.png,blue_stim_1.png,533,1,true,2,1,6,0,0.31971399124681604,0.6951980838446641,0.6345353844241849,0.38798306798328186,1,9,294,true,TRUE,j
daw_two_step,10,28,292851,70,2,1,stage1_stim_2.png,stage1_stim_1.png,448,2,2,1,pink,pink_stim_2.png,pink_stim_1.png,965,2,true,1,0,7,0,0.3068350139699828,0.7217809994415999,0.6392881923555805,0.3779039248471573,1,10,294,true,TRUE,f
daw_two_step,11,29,296740,70,2,1,stage1_stim_2.png,stage1_stim_1.png,520,2,1,2,blue,blue_stim_1.png,blue_stim_2.png,508,1,false,2,1,7,0,0.29285716302058534,0.7262865169778392,0.6390461892123394,0.36246538242507986,1,11,294,true,TRUE,f
daw_two_step,12,30,300382,74,1,2,stage1_stim_1.png,stage1_stim_2.png,440,2,1,2,blue,blue_stim_1.png,blue_stim_2.png,424,2,false,2,1,7,0,0.25582491715677247,0.7377285981171108,0.6127259173073119,0.33674125608776395,1,12,294,false,TRUE,j
daw_two_step,13,31,305077,74,1,2,stage1_stim_1.png,stage1_stim_2.png,462,2,2,1,blue,blue_stim_2.png,blue_stim_1.png,990,1,true,2,1,8,0,0.26284305539945985,0.7449229136466435,0.6116515915115558,0.33726176213731823,1,13,294,false,TRUE,j
daw_two_step,14,32,309592,70,2,1,stage1_stim_2.png,stage1_stim_1.png,392,2,1,2,pink,pink_stim_1.png,pink_stim_2.png,1113,1,true,1,0,9,0,0.28436755720939666,0.7323193350326174,0.6151944509794873,0.2856707510679464,1,14,294,true,TRUE,f
daw_two_step,15,33,314129,74,2,1,stage1_stim_2.png,stage1_stim_1.png,482,2,2,1,blue,blue_stim_2.png,blue_stim_1.png,879,1,false,2,1,9,0,0.2820199568487371,0.725314425095898,0.6071446970793758,0.2863232650231594,1,15,294,true,TRUE,j
daw_two_step,16,34,318014,70,1,2,stage1_stim_1.png,stage1_stim_2.png,625,1,1,2,blue,blue_stim_1.png,blue_stim_2.png,584,1,true,2,0,10,0,0.2622569371576281,0.7075473826257509,0.6483363354203265,0.267291876057023,1,16,294,false,FALSE,f
daw_two_step,17,35,321628,70,1,2,stage1_stim_1.png,stage1_stim_2.png,526,2,1,2,blue,blue_stim_1.png,blue_stim_2.png,414,1,false,2,1,10,0,0.2542322594062785,0.6702359582926156,0.6720006754250984,0.27406476952053827,1,17,294,true,FALSE,f
daw_two_step,18,36,325452,70,1,2,stage1_stim_1.png,stage1_stim_2.png,342,2,2,1,blue,blue_stim_2.png,blue_stim_1.png,505,2,false,2,1,10,0,0.25861525779724626,0.7065058645233495,0.7156089747681099,0.3277586939533978,1,18,294,false,TRUE,f
daw_two_step,19,37,329457,70,2,1,stage1_stim_2.png,stage1_stim_1.png,490,2,1,2,blue,blue_stim_1.png,blue_stim_2.png,625,1,true,2,1,11,0,0.27401115788584296,0.6858332668737309,0.7472227520929927,0.32301972561318226,1,19,294,false,TRUE,f
daw_two_step,20,38,333719,70,1,2,stage1_stim_1.png,stage1_stim_2.png,750,2,1,2,blue,blue_stim_1.png,blue_stim_2.png,497,1,true,2,1,12,0,0.3050305275687453,0.6817806884618426,0.7101905062291798,0.30112238047287065,1,20,294,true,TRUE,f
daw_two_step,21,39,337774,74,2,1,stage1_stim_2.png,stage1_stim_1.png,445,2,2,1,blue,blue_stim_2.png,blue_stim_1.png,548,1,true,2,1,13,0,0.32215557865993594,0.6367398105634439,0.7426584244458257,0.26300643824267855,1,21,294,true,TRUE,j
daw_two_step,22,40,342383,70,2,1,stage1_stim_2.png,stage1_stim_1.png,410,2,2,1,pink,pink_stim_2.png,pink_stim_1.png,767,2,false,1,0,13,0,0.3423049403442984,0.6316837003331576,0.7041595041441824,0.26846489044393146,1,22,294,true,TRUE,f
daw_two_step,23,41,346191,70,1,2,stage1_stim_1.png,stage1_stim_2.png,481,2,1,2,blue,blue_stim_1.png,blue_stim_2.png,460,1,true,2,1,14,0,0.3318805687584745,0.6418496289260072,0.7225965211895341,0.254087563619391,1,23,294,false,TRUE,f
daw_two_step,24,42,349976,74,2,1,stage1_stim_2.png,stage1_stim_1.png,427,2,1,2,pink,pink_stim_1.png,pink_stim_2.png,471,2,false,1,0,14,0,0.34347499271942666,0.6277780171023791,0.7393828660271068,0.2604719815533218,1,24,294,true,TRUE,j
daw_two_step,25,43,353723,70,1,2,stage1_stim_1.png,stage1_stim_2.png,436,2,1,2,blue,blue_stim_1.png,blue_stim_2.png,622,1,false,2,1,14,0,0.334288955520045,0.6209114790163607,0.7072634799246476,0.26022997841008055,1,25,294,false,TRUE,f
daw_two_step,26,44,357292,74,1,2,stage1_stim_1.png,stage1_stim_2.png,406,1,2,1,blue,blue_stim_2.png,blue_stim_1.png,563,1,true,2,0,15,0,0.3081471640693586,0.6100354236020353,0.6620796850190481,0.2573264598806453,1,26,294,false,FALSE,j
daw_two_step,27,45,361036,74,1,2,stage1_stim_1.png,stage1_stim_2.png,558,2,1,2,pink,pink_stim_1.png,pink_stim_2.png,511,2,true,1,0,16,0,0.30709845986251477,0.5648516286964359,0.7005010816438995,0.2778613647270814,1,27,294,true,FALSE,j
daw_two_step,28,46,365272,70,2,1,stage1_stim_2.png,stage1_stim_1.png,222,1,1,2,blue,blue_stim_1.png,blue_stim_2.png,544,1,true,2,0,17,0,0.25907880875700895,0.6006386755650368,0.6836102827241299,0.2685660269073526,1,28,294,true,FALSE,f
